File: Tafel/CCN-AO.txt
C:\Users\user\Desktop\Luka Suhadolnik - Arminov BioL\5. december 2022\05-12-2022\1 M KOH Titripur\RDE10 - HEA-N-AO 50V 5m 10.11.22 FIB STEM\teflonski holder\3 OER O2 2 mVs 5000 RPM_02_CV_C01.mpr
Ewe/V vs. SCE	<I>/mA
1,300980210304260E+000	-1,369383380273059E-001
1,302676558494568E+000	-3,273071977366748E-002
1,304357767105103E+000	2,571335479268305E-002
1,306061744689941E+000	4,494589743069988E-002
1,307762742042542E+000	7,143408743201274E-002
1,309456467628479E+000	8,518880051270128E-002
1,311146974563599E+000	9,199291605748661E-002
1,312841653823853E+000	1,001565793085608E-001
1,314549565315247E+000	1,198717115490673E-001
1,316262364387512E+000	1,279977113256413E-001
1,317966341972351E+000	1,278395766742380E-001
1,319654822349548E+000	1,194732961337834E-001
1,321356654167175E+000	1,296484201601129E-001
1,323035240173340E+000	1,310359851615343E-001
1,324720740318298E+000	1,382149154000031E-001
1,326445579528809E+000	1,526773617942920E-001
1,328112006187439E+000	1,497660988161984E-001
1,329821109771729E+000	1,468824778057265E-001
1,331519961357117E+000	1,690475107737259E-001
1,333238124847412E+000	1,585275020291776E-001
1,334941148757935E+000	1,693549246358490E-001
1,336664319038391E+000	1,639812831937744E-001
1,338351249694824E+000	1,799984037954268E-001
1,340054392814636E+000	1,810167195668826E-001
1,341753721237183E+000	1,787284506264974E-001
1,343442916870117E+000	1,943688321623718E-001
1,345149755477905E+000	1,905341369747475E-001
1,346851706504822E+000	2,000856975359719E-001
1,348543763160706E+000	2,256281165872460E-001
1,350251317024231E+000	2,109515572473755E-001
1,351966381072998E+000	2,200387654065392E-001
1,353663086891174E+000	2,029167022816338E-001
1,355367660522461E+000	2,137944412006136E-001
1,357056975364685E+000	2,301157350790288E-001
1,358764529228210E+000	2,213295320090989E-001
1,360456347465515E+000	2,326394700132184E-001
1,362121462821960E+000	2,236692218728624E-001
1,363821268081665E+000	2,444084369782029E-001
1,365532517433167E+000	2,410756840815549E-001
1,367218136787415E+000	2,472626858610322E-001
1,368925452232361E+000	2,406604886623869E-001
1,370632767677307E+000	2,516070346400201E-001
1,372346401214600E+000	2,476203289584235E-001
1,374058246612549E+000	2,591108365920617E-001
1,375753998756409E+000	2,444128716501672E-001
1,377441048622131E+000	2,418106726485920E-001
1,379137635231018E+000	2,474609852226521E-001
1,380839943885803E+000	2,368202595991051E-001
1,382546544075012E+000	2,356384546715652E-001
1,384248018264771E+000	2,255088357613182E-001
1,385923266410828E+000	2,377671760036034E-001
1,387621283531189E+000	2,266530917018157E-001
1,389309763908386E+000	2,213817635500903E-001
1,391036748886108E+000	2,224168404655540E-001
1,392725825309753E+000	2,257561281517835E-001
1,394449353218079E+000	2,168114123667539E-001
1,396147727966309E+000	2,270380492984043E-001
1,397868156433105E+000	2,111435463245148E-001
1,399524450302124E+000	2,163668365295459E-001
1,401202917098999E+000	2,046025292698817E-001
1,402909398078918E+000	1,970285860715197E-001
1,404593944549561E+000	2,032950534317191E-001
1,406288623809814E+000	1,930967277326103E-001
1,408005595207214E+000	1,928535063453460E-001
1,409696459770203E+000	1,922928225812754E-001
1,411406636238098E+000	1,913336287403653E-001
1,413130998611450E+000	1,957999666379315E-001
1,414814472198486E+000	2,037568008186561E-001
1,416517853736877E+000	1,952250627594434E-001
1,418220877647400E+000	2,030907041729213E-001
1,419922709465027E+000	2,020575013934227E-001
1,421622395515442E+000	1,929973025141107E-001
1,423337936401367E+000	2,117156381243068E-001
1,425031661987305E+000	2,128507588350628E-001
1,426715254783630E+000	2,125795448640044E-001
1,428429245948792E+000	2,299862127999837E-001
1,430127263069153E+000	2,342798198370346E-001
1,431835293769836E+000	2,423075330314988E-001
1,433527827262878E+000	2,559381649569894E-001
1,435222148895264E+000	2,637311453139346E-001
1,436921119689941E+000	2,880670191115668E-001
1,438610911369324E+000	3,039878049208649E-001
1,440285682678223E+000	3,206924081527394E-001
1,441983699798584E+000	3,547699568643221E-001
1,443680167198181E+000	3,866129660108584E-001
1,445390105247498E+000	4,267224185921714E-001
1,447096705436707E+000	4,675354353303809E-001
1,448807954788208E+000	5,103057035934218E-001
1,450512528419495E+000	5,620346595290520E-001
1,452201843261719E+000	6,264512550327146E-001
1,453910470008850E+000	6,755615387245557E-001
1,455598473548889E+000	7,624039358527277E-001
1,457293391227722E+000	8,536708565865681E-001
1,459009051322937E+000	9,657747466993172E-001
1,460702300071716E+000	1,096895800635128E+000
1,462409377098084E+000	1,209752931015144E+000
1,464131474494934E+000	1,322522917525287E+000
1,465815663337708E+000	1,475815028647281E+000
1,467512488365173E+000	1,670361144177772E+000
1,469197034835815E+000	1,843456699149826E+000
1,470890522003174E+000	2,081508895312048E+000
1,472590327262878E+000	2,327052324112643E+000
1,474294304847717E+000	2,589545263494197E+000
1,476000070571899E+000	2,900471753437984E+000
1,477700710296631E+000	3,229543507468669E+000
1,479381442070007E+000	3,567528156902114E+000
1,481096982955933E+000	3,971299145170278E+000
1,482801675796509E+000	4,369514059049976E+000
1,484506011009216E+000	4,786696467047548E+000
1,486199498176575E+000	5,305449017589750E+000
1,487870812416077E+000	5,807711058923182E+000
1,489575028419495E+000	6,382878759068500E+000
1,491292238235474E+000	7,104942301169400E+000
1,492990255355835E+000	7,735461910562663E+000
1,494670987129211E+000	8,398106841881742E+000
1,496383666992188E+000	9,075705585842925E+000
1,498109221458435E+000	9,861960421355093E+000
1,499758005142212E+000	1,054312307859666E+001
1,501469373703003E+000	1,167692865181486E+001
1,503139019012451E+000	1,261078218644190E+001
1,504836320877075E+000	1,350358995506352E+001
1,506541728973389E+000	1,469094968606933E+001
1,508225679397583E+000	1,592707156598082E+001
1,509920597076416E+000	1,673608075552232E+001
1,511626958847046E+000	1,780227241956726E+001
1,513330459594727E+000	1,899204079212655E+001
1,515032410621643E+000	2,055794378617213E+001
1,516738414764404E+000	2,259143414534748E+001
1,518422007560730E+000	2,294750179099941E+001
1,520126104354858E+000	2,449945729012768E+001
1,521798372268677E+000	2,607535370979003E+001
1,523535370826721E+000	2,759727454581659E+001
1,525222778320313E+000	2,858041476733712E+001
1,526911139488220E+000	3,034112213652244E+001
1,528618216514587E+000	3,334514912738229E+001
1,530314683914185E+000	3,416636625495437E+001
1,532035112380981E+000	3,571635719170536E+001
1,533723831176758E+000	3,840932874799924E+001
1,535391330718994E+000	3,983740160077980E+001
1,537089824676514E+000	4,178112054837595E+001
1,538797736167908E+000	4,442947933150322E+001
1,540499329566956E+000	4,453192763637014E+001
1,542222380638123E+000	4,693448065406528E+001
1,543884038925171E+000	4,968696935991883E+001
1,545573949813843E+000	5,278674521875109E+001
1,547327756881714E+000	5,437423510708015E+001
1,549009442329407E+000	5,510165303894757E+001
1,550675034523010E+000	5,905280497094850E+001
1,552378535270691E+000	5,936775799769043E+001
1,554057121276855E+000	6,197859414412937E+001
1,555754780769348E+000	6,278256788659189E+001
1,557471275329590E+000	6,608117549599103E+001
1,559140920639038E+000	6,785246509248418E+001
1,560846567153931E+000	7,369154930923958E+001
1,562514781951904E+000	7,154655545021762E+001
1,564228534698486E+000	7,432964191826636E+001
1,565921068191528E+000	7,607362127525062E+001
1,567605376243591E+000	8,137330894204479E+001
1,569322705268860E+000	8,301376016769791E+001
1,570990443229675E+000	8,168019793644953E+001
1,572720766067505E+000	8,727946938340619E+001
1,574416041374207E+000	8,861129066853300E+001
1,576101183891296E+000	9,240920921405268E+001
1,577794194221497E+000	9,364777891652693E+001
1,579501867294312E+000	9,851232207641993E+001
1,581192970275879E+000	1,002274442233102E+002
1,582883000373840E+000	1,015891281381239E+002
1,584535241127014E+000	1,043291540917325E+002
1,586231708526611E+000	1,048705053187826E+002
1,587994098663330E+000	1,104078106369466E+002
1,589639544487000E+000	1,111947065347701E+002
1,591317534446716E+000	1,151094066828024E+002
1,592997431755066E+000	1,174423862283188E+002
1,594700813293457E+000	1,194583487307086E+002
1,596439123153687E+000	1,207562442624035E+002
1,598105669021606E+000	1,218961641244731E+002
1,599397778511047E+000	1,254570821263396E+002
1,599684000015259E+000	1,301880817235073E+002
1,598922014236450E+000	1,256360311917341E+002
1,597176551818848E+000	1,235305042376629E+002
1,595502734184265E+000	1,192172859235988E+002
1,593800902366638E+000	1,173929555218949E+002
1,592105627059937E+000	1,139291265617928E+002
1,590410709381104E+000	1,138932694020659E+002
1,588765144348145E+000	1,111966944195968E+002
1,587064623832703E+000	1,089714319018901E+002
1,585343241691589E+000	1,049748957365352E+002
1,583649992942810E+000	1,046569720240632E+002
1,581942558288574E+000	1,001179371323028E+002
1,580261826515198E+000	9,686365670077157E+001
1,578571677207947E+000	9,356618726738634E+001
1,576875805854797E+000	9,420589453279632E+001
1,575194239616394E+000	8,951861900075460E+001
1,573500394821167E+000	8,822153559576481E+001
1,571816086769104E+000	8,522021454711077E+001
1,570115089416504E+000	8,559877006907581E+001
1,568403482437134E+000	8,323208962821582E+001
1,566742777824402E+000	8,187534389037370E+001
1,564999818801880E+000	7,842997107501662E+001
1,563335537910461E+000	7,537454071892364E+001
1,561631083488464E+000	7,442008308656762E+001
1,559971094131470E+000	7,171839956942392E+001
1,558249711990356E+000	7,096025207995194E+001
1,556576013565063E+000	6,584219208064326E+001
1,554837822914124E+000	6,635675110543292E+001
1,553179621696472E+000	6,214969055647725E+001
1,551481962203979E+000	6,261175005098733E+001
1,549775958061218E+000	6,102158849901650E+001
1,548100709915161E+000	5,836195664579787E+001
1,546401262283325E+000	5,557931682357651E+001
1,544717431068420E+000	5,179278818605485E+001
1,543001651763916E+000	5,301957099076105E+001
1,541323900222778E+000	5,098232112982441E+001
1,539633035659790E+000	4,859483735843931E+001
1,537922143936157E+000	4,632084850004753E+001
1,536192893981934E+000	4,375018471777958E+001
1,534523248672485E+000	4,406570838355117E+001
1,532836318016052E+000	4,090512863967803E+001
1,531123995780945E+000	3,953776188794697E+001
1,529441237449646E+000	3,698375353165738E+001
1,527724266052246E+000	3,705107586124387E+001
1,526028156280518E+000	3,408125392489325E+001
1,524333834648132E+000	3,239868981084396E+001
1,522600650787354E+000	3,128411007256403E+001
1,520911335945129E+000	2,990945923117209E+001
1,519192218780518E+000	2,787482222533760E+001
1,517529964447021E+000	2,682826307540734E+001
1,515816569328308E+000	2,583122521834372E+001
1,514131546020508E+000	2,367312613782730E+001
1,512420177459717E+000	2,255932530423274E+001
1,510721802711487E+000	2,097311506886092E+001
1,509031295776367E+000	1,944939093280237E+001
1,507347106933594E+000	1,922079231221727E+001
1,505661725997925E+000	1,721410924807904E+001
1,503920078277588E+000	1,633486934887690E+001
1,502260088920593E+000	1,563793555030743E+001
1,500549674034119E+000	1,445719196940445E+001
1,498853564262390E+000	1,347444501275609E+001
1,497152686119080E+000	1,275475323782403E+001
1,495437741279602E+000	1,170610817594583E+001
1,493752479553223E+000	1,116409374530333E+001
1,492083787918091E+000	1,010160808676613E+001
1,490350484848022E+000	9,271389795773700E+000
1,488669991493225E+000	8,559239336089306E+000
1,486967206001282E+000	7,942315608900330E+000
1,485282182693481E+000	7,200159751207082E+000
1,483551383018494E+000	6,586422353774161E+000
1,481873154640198E+000	5,985698677878514E+000
1,480197429656982E+000	5,413786650672961E+000
1,478468775749207E+000	5,012615079448722E+000
1,476775646209717E+000	4,578116408096278E+000
1,475114822387695E+000	4,126000063637548E+000
1,473416447639465E+000	3,721937630710572E+000
1,471711635589600E+000	3,360646053761716E+000
1,469979643821716E+000	3,030575869765336E+000
1,468284964561462E+000	2,711787213533920E+000
1,466581106185913E+000	2,493176259932685E+000
1,464910268783569E+000	2,218636510553212E+000
1,463216900825500E+000	1,979946293760946E+000
1,461517691612244E+000	1,791481074548898E+000
1,459810495376587E+000	1,611577215809618E+000
1,458101272583008E+000	1,448707045451457E+000
1,456407189369202E+000	1,277565386031197E+000
1,454710125923157E+000	1,133678049145381E+000
1,453030109405518E+000	1,001671936123453E+000
1,451313376426697E+000	8,869779320568565E-001
1,449621438980103E+000	7,739613376422625E-001
1,447904825210571E+000	6,865396820309257E-001
1,446208953857422E+000	5,900597034752191E-001
1,444501996040344E+000	5,231283840891532E-001
1,442801713943481E+000	4,474536491936153E-001
1,441110253334045E+000	3,912781758949955E-001
1,439404010772705E+000	3,418200188034550E-001
1,437735438346863E+000	2,940348629644745E-001
1,436030387878418E+000	2,547748317763334E-001
1,434343695640564E+000	2,109951136497017E-001
1,432631731033325E+000	1,851058810908164E-001
1,430923938751221E+000	1,460489927914401E-001
1,429212331771851E+000	1,237288212056404E-001
1,427528977394104E+000	1,065807380583803E-001
1,425832271575928E+000	8,657125344651107E-002
1,424125194549561E+000	7,277087260497139E-002
1,422421455383301E+000	4,908305176357675E-002
1,420724868774414E+000	4,076827847715681E-002
1,419030070304871E+000	2,859456093981489E-002
1,417327880859375E+000	2,186346907878939E-002
1,415634870529175E+000	1,549396303996547E-002
1,413934469223022E+000	1,161363224850021E-002
1,412230014801025E+000	4,098156910368340E-003
1,410506725311279E+000	-1,396418538172206E-002
1,408818721771240E+000	-1,482590577043322E-002
1,407117486000061E+000	-1,766051007822142E-002
1,405424833297729E+000	-1,860731506094854E-002
1,403721451759338E+000	-2,516936515237888E-002
1,402009367942810E+000	-3,561568002869198E-002
1,400340676307678E+000	-3,574230941324524E-002
1,398646593093872E+000	-3,470997240927598E-002
1,396952509880066E+000	-4,217767170256859E-002
1,395262718200684E+000	-4,108148980605442E-002
1,393527030944824E+000	-3,477628098503677E-002
1,391824007034302E+000	-5,005489375875993E-002
1,390115022659302E+000	-4,857263952769364E-002
1,388404488563538E+000	-5,206592046485994E-002
1,386713147163391E+000	-4,764481168319362E-002
1,385008692741394E+000	-6,302633711132066E-002
1,383296012878418E+000	-5,516584815503101E-002
1,381607770919800E+000	-6,059378504522683E-002
1,379921317100525E+000	-6,214862430766455E-002
1,378224134445190E+000	-5,768325773353955E-002
1,376537919044495E+000	-6,033489270906256E-002
1,374824762344360E+000	-5,815875363507694E-002
1,373133301734924E+000	-7,416249892405846E-002
1,371430993080139E+000	-7,529047667581379E-002
1,369711041450500E+000	-8,398348244749743E-002
1,368007063865662E+000	-8,281519717947305E-002
1,366315126419067E+000	-7,628975915170577E-002
1,364599704742432E+000	-9,264769708373843E-002
1,362921357154846E+000	-9,097685246540577E-002
1,361236572265625E+000	-8,997408826479103E-002
1,359532952308655E+000	-9,576469301153256E-002
1,357843399047852E+000	-1,031939144014100E-001
1,356123208999634E+000	-1,045551482002840E-001
1,354413509368896E+000	-1,098172100762549E-001
1,352722525596619E+000	-1,105608119431293E-001
1,351014494895935E+000	-1,052929849140510E-001
1,349298596382141E+000	-1,222244864277566E-001
1,347614765167236E+000	-1,305522666051120E-001
1,345896482467651E+000	-1,309562035995410E-001
1,344205975532532E+000	-1,327127397410510E-001
1,342512965202332E+000	-1,414156989334427E-001
1,340824842453003E+000	-1,504349082552030E-001
1,339113712310791E+000	-1,619905528855805E-001
1,337419152259827E+000	-1,623863118940999E-001
1,335736036300659E+000	-1,607860672010704E-001
1,334005236625671E+000	-1,703267794076933E-001

1,332287311553955E+000	-1,801990092108920E-001
1,330591559410095E+000	-2,002342698310788E-001
1,328894495964050E+000	-1,944970610791563E-001
1,327204465866089E+000	-2,027805234203743E-001
1,325500845909119E+000	-2,118578772761328E-001
1,323830008506775E+000	-2,079858956138221E-001
1,322151064872742E+000	-2,209333816823200E-001
1,320455074310303E+000	-2,287720056748941E-001
1,318756341934204E+000	-2,326356923574582E-001
1,317053318023682E+000	-2,325518667553190E-001
1,315334796905518E+000	-2,297075427410109E-001
1,313638687133789E+000	-2,465702324262118E-001
1,311930775642395E+000	-2,464702844399802E-001
1,310241222381592E+000	-2,519344341810359E-001
1,308557271957397E+000	-2,596897127003164E-001
1,306861400604248E+000	-2,534972391902004E-001
1,305165052413940E+000	-2,617168418080604E-001
1,303443431854248E+000	-2,704275553989343E-001
1,301751255989075E+000	-2,735335568021879E-001
1,300514101982117E+000	-2,915379152247430E-001
1,300036787986755E+000	-2,839806040650923E-001