File: Tafel/FeCoNiCuMn-N-AO.txt
EC-Lab ASCII FILE
Nb header lines : 59

Cyclic Voltammetry

Run on channel : 1 (SN 1153)
User :
Electrode connection : standard
Potential control : Ewe
Ewe ctrl range : min = -2,50 V, max = 2,50 V
Ewe,I filtering : 50 kHz
Safety Limits :
	Do not start on E overload
Channel : Grounded
Acquisition started on : 12/16/2024 17:47:38.305
Loaded Setting File :  C:\Users\lab10\Desktop\Luka Suhadolnik\K12-3_FeCoNiCuMn\6 OER.mps
Saved on :
	File : 4 OER_03_CV_C01.mpr
	Directory : C:\Users\lab10\Desktop\Luka Suhadolnik\K11-4\
	Host : 192.168.0.28
Device : SP-200 (SN 0067)
Address : USB
EC-Lab for windows v11.52 (software)
Internet server v11.52 (firmware)
Command interpretor v11.52 (firmware)
Electrode material :
Initial state :
Electrolyte :
Comments :
Cable : standard
Electrode surface area : 0,001 cm²
Characteristic mass : 0,001 g
Equivalent Weight : 0,000 g/eq.
Density : 0,000 g/cm3
Volume (V) : 0,001 cm³
Cycle Definition : Charge/Discharge alternance
Ei (V)              0,277
vs.                 Ref
dE/dt               2,000
dE/dt unit          mV/s
E1 (V)              0,627
vs.                 Ref
Step percent        85
N                   17
E range min (V)     -2,500
E range max (V)     2,500
I Range             100 mA
I Range min         Unset
I Range max         Unset
I Range init        Unset
Bandwidth           8
E2 (V)              0,277
vs.                 Ref
nc cycles           0
Reverse Scan        1
Ef (V)              0,277
vs.                 Ref

mode	ox/red	error	control changes	counter inc.	time/s	control/V	Ewe/V	<I>/mA	cycle number	(Q-Qo)/C	I Range	Rcmp/Ohm	step time/s	P/W
2	1	0	1	0	5,100999871137901E+000	2,7696514E-001	2,7624631E-001	7,192376255989075E-001	1,000000000000000E+000	0,0000000E+000	38	4,5899997E+000	0,000000000000000E+000	1,9868674E-004
2	1	0	1	0	6,400699838304718E+000	2,7956429E-001	2,7886793E-001	6,443135397838304E-001	1,000000000000000E+000	8,8386133E-004	38	4,5899973E+000	8,497999785322463E-001	1,7967838E-004
2	1	0	1	0	8,100299795369210E+000	2,8296354E-001	2,8223512E-001	5,663549146965376E-001	1,000000000000000E+000	1,9094266E-003	38	4,5899973E+000	2,549399935596739E+000	1,5984525E-004
2	1	0	1	0	9,799899752433703E+000	2,8636268E-001	2,8563079E-001	5,123505535609425E-001	1,000000000000000E+000	2,8249505E-003	38	4,5899973E+000	4,248999892661232E+000	1,4634310E-004
2	1	0	1	0	1,149929970950325E+001	2,8976151E-001	2,8903016E-001	4,724470873515028E-001	1,000000000000000E+000	3,6612458E-003	38	4,5899973E+000	5,948399849730777E+000	1,3655146E-004
2	1	0	1	0	1,319889966656774E+001	2,9316068E-001	2,9244089E-001	4,444111710671237E-001	1,000000000000000E+000	4,4409749E-003	38	4,5899973E+000	7,647999806795269E+000	1,2996400E-004
2	1	0	1	0	1,489849962363223E+001	2,9655990E-001	2,9585072E-001	4,218384132190627E-001	1,000000000000000E+000	5,1779570E-003	38	4,5899973E+000	9,347599763859762E+000	1,2480120E-004
2	1	0	1	0	1,659809958069673E+001	2,9995912E-001	2,9925618E-001	4,049057539659389E-001	1,000000000000000E+000	5,8817626E-003	38	4,5899973E+000	1,104719972092425E+001	1,2117055E-004
2	1	0	1	0	1,829759953776374E+001	3,0335811E-001	3,0263767E-001	3,921912795278510E-001	1,000000000000000E+000	6,5603144E-003	38	4,5899973E+000	1,274669967799127E+001	1,1869185E-004
2	1	0	1	0	1,999709949483076E+001	3,0675712E-001	3,0603448E-001	3,822852214421673E-001	1,000000000000000E+000	7,2201947E-003	38	4,5899973E+000	1,444619963505829E+001	1,1699246E-004
2	1	0	1	0	2,169669945189526E+001	3,1015632E-001	3,0943120E-001	3,745994104143637E-001	1,000000000000000E+000	7,8651384E-003	38	4,5899973E+000	1,614579959212278E+001	1,1591274E-004
2	1	0	1	0	2,339629940895975E+001	3,1355548E-001	3,1284374E-001	3,685538347074324E-001	1,000000000000000E+000	8,4984060E-003	38	4,5899973E+000	1,784539954918728E+001	1,1529976E-004
2	1	0	1	0	2,509589936602424E+001	3,1695467E-001	3,1624481E-001	3,642123061436761E-001	1,000000000000000E+000	9,1232294E-003	38	4,5899973E+000	1,954499950625177E+001	1,1518025E-004
2	1	0	1	0	2,679529932309379E+001	3,2035351E-001	3,1965289E-001	3,614655310618584E-001	1,000000000000000E+000	9,7419405E-003	38	4,5899973E+000	2,124439946332132E+001	1,1554350E-004
2	1	0	1	0	2,849489928015828E+001	3,2375270E-001	3,2304725E-001	3,593053807260089E-001	1,000000000000000E+000	1,0356713E-002	38	4,5899973E+000	2,294399942038581E+001	1,1607262E-004
2	1	0	1	0	3,019449923722277E+001	3,2715189E-001	3,2645026E-001	3,568898691862299E-001	1,000000000000000E+000	1,0967545E-002	38	4,5899973E+000	2,464359937745030E+001	1,1650679E-004
2	1	0	1	0	3,189409919428726E+001	3,3055109E-001	3,2986411E-001	3,543212540780951E-001	1,000000000000000E+000	1,1574583E-002	38	4,5899973E+000	2,634319933451479E+001	1,1687787E-004
2	1	0	1	0	3,359369915135176E+001	3,3395028E-001	3,3326298E-001	3,577581120052464E-001	1,000000000000000E+000	1,2179976E-002	38	4,5899973E+000	2,804279929157929E+001	1,1922754E-004
2	1	0	1	0	3,529309910842130E+001	3,3734909E-001	3,3666790E-001	3,542796146512406E-001	1,000000000000000E+000	1,2787569E-002	38	4,5899973E+000	2,974219924864883E+001	1,1927457E-004
2	1	0	1	0	3,699269906548579E+001	3,4074828E-001	3,4006542E-001	3,521442571812621E-001	1,000000000000000E+000	1,3390637E-002	38	4,5899973E+000	3,144179920571332E+001	1,1975208E-004
2	1	0	1	0	3,869229902255029E+001	3,4414747E-001	3,4344250E-001	3,507288678136461E-001	1,000000000000000E+000	1,3991139E-002	38	4,5899973E+000	3,314139916277782E+001	1,2045520E-004
2	1	0	1	0	4,039189897961478E+001	3,4754667E-001	3,4683782E-001	3,529383447269163E-001	1,000000000000000E+000	1,4594163E-002	38	4,5899973E+000	3,484099911984231E+001	1,2241237E-004
2	1	0	1	0	4,209139893668180E+001	3,5094568E-001	3,5023186E-001	3,525314237196788E-001	1,000000000000000E+000	1,5197135E-002	38	4,5899973E+000	3,654049907690933E+001	1,2346773E-004
2	1	0	1	0	4,379089889374882E+001	3,5434467E-001	3,5364079E-001	3,524826217546453E-001	1,000000000000000E+000	1,5799833E-002	38	4,5899973E+000	3,823999903397635E+001	1,2465223E-004
2	1	0	1	0	4,549049885081331E+001	3,5774386E-001	3,5703939E-001	3,534001889428744E-001	1,000000000000000E+000	1,6403785E-002	38	4,5899973E+000	3,993959899104084E+001	1,2617779E-004
2	1	0	1	0	4,719009880787780E+001	3,6114305E-001	3,6042073E-001	3,543226012374081E-001	1,000000000000000E+000	1,7009718E-002	38	4,5899973E+000	4,163919894810533E+001	1,2770521E-004
2	1	0	1	0	4,888969876494230E+001	3,6454231E-001	3,6381501E-001	3,562729766421198E-001	1,000000000000000E+000	1,7618276E-002	38	4,5899973E+000	4,333879890516982E+001	1,2961746E-004
2	1	0	1	0	5,058909872201184E+001	3,6794111E-001	3,6722189E-001	3,605919583713133E-001	1,000000000000000E+000	1,8232638E-002	38	4,5899973E+000	4,503819886223937E+001	1,3241726E-004
2	1	0	1	0	5,228869867907633E+001	3,7134027E-001	3,7063774E-001	3,658763258269184E-001	1,000000000000000E+000	1,8855657E-002	38	4,5899973E+000	4,673779881930386E+001	1,3560758E-004
2	1	0	1	0	5,398829863614083E+001	3,7473941E-001	3,7404090E-001	3,711928702128997E-001	1,000000000000000E+000	1,9488189E-002	38	4,5899973E+000	4,843739877636835E+001	1,3884132E-004
2	1	0	1	0	5,568789859320532E+001	3,7813866E-001	3,7743738E-001	3,772794942229725E-001	1,000000000000000E+000	2,0130780E-002	38	4,5899973E+000	5,013699873343285E+001	1,4239938E-004
2	1	0	1	0	5,738749855026981E+001	3,8153785E-001	3,8083321E-001	3,860973380833905E-001	1,000000000000000E+000	2,0786306E-002	38	4,5899973E+000	5,183659869049734E+001	1,4703869E-004
2	1	0	1	0	5,908689850733936E+001	3,8493669E-001	3,8423106E-001	3,957853187359461E-001	1,000000000000000E+000	2,1458063E-002	38	4,5899973E+000	5,353599864756688E+001	1,5207301E-004
2	1	0	1	0	6,078649846440385E+001	3,8833585E-001	3,8761675E-001	4,077813303016700E-001	1,000000000000000E+000	2,2148905E-002	38	4,5899973E+000	5,523559860463138E+001	1,5806287E-004
2	1	0	1	0	6,248609842146834E+001	3,9173505E-001	3,9101952E-001	4,215011901618376E-001	1,000000000000000E+000	2,2862036E-002	38	4,5899973E+000	5,693519856169587E+001	1,6481520E-004
2	1	0	1	0	6,418569837853283E+001	3,9513424E-001	3,9443028E-001	4,379717065523887E-001	1,000000000000000E+000	2,3601661E-002	38	4,5899973E+000	5,863479851876036E+001	1,7274931E-004
2	1	0	1	0	6,588509833560238E+001	3,9853305E-001	3,9781770E-001	4,551017970928717E-001	1,000000000000000E+000	2,4369989E-002	38	4,5899973E+000	6,033419847582991E+001	1,8104755E-004
2	1	0	1	0	6,758469829266687E+001	4,0193230E-001	4,0124446E-001	4,747188864082341E-001	1,000000000000000E+000	2,5170678E-002	38	4,5899973E+000	6,203379843289440E+001	1,9047833E-004
2	1	0	1	0	6,928429824973136E+001	4,0533146E-001	4,0463519E-001	4,975312383427992E-001	1,000000000000000E+000	2,6007947E-002	38	4,5899973E+000	6,373339838995889E+001	2,0131865E-004
2	1	0	1	0	7,098389820679586E+001	4,0873069E-001	4,0803987E-001	5,239106963227540E-001	1,000000000000000E+000	2,6887393E-002	38	4,5899973E+000	6,543299834702339E+001	2,1377645E-004
2	1	0	1	0	7,268349816386035E+001	4,1212985E-001	4,1144913E-001	5,532110454276058E-001	1,000000000000000E+000	2,7814694E-002	38	4,5899973E+000	6,713259830408788E+001	2,2761821E-004
2	1	0	1	0	7,438289812092989E+001	4,1552868E-001	4,1484585E-001	5,860044854511557E-001	1,000000000000000E+000	2,8794805E-002	38	4,5899973E+000	6,883199826115742E+001	2,4310153E-004
2	1	0	1	0	7,608249807799439E+001	4,1892782E-001	4,1823870E-001	6,257915814352728E-001	1,000000000000000E+000	2,9836688E-002	38	4,5899973E+000	7,053159821822192E+001	2,6173025E-004
2	1	0	1	0	7,778209803505888E+001	4,2232707E-001	4,2162985E-001	6,650267332553428E-001	1,000000000000000E+000	3,0946318E-002	38	4,5899973E+000	7,223119817528641E+001	2,8039512E-004
2	1	0	1	0	7,948169799212337E+001	4,2572626E-001	4,2501396E-001	7,101920745410082E-001	1,000000000000000E+000	3,2127850E-002	38	4,5899973E+000	7,393079813235090E+001	3,0184156E-004
2	1	0	1	0	8,118119794919039E+001	4,2912522E-001	4,2846254E-001	7,599802848839765E-001	1,000000000000000E+000	3,3390962E-002	38	4,5899973E+000	7,563029808941792E+001	3,2562308E-004
2	1	0	1	0	8,288069790625741E+001	4,3252423E-001	4,3183047E-001	8,135589624416149E-001	1,000000000000000E+000	3,4742273E-002	38	4,5899973E+000	7,732979804648494E+001	3,5131956E-004
2	1	0	1	0	8,458029786332190E+001	4,3592346E-001	4,3523279E-001	8,722358250611482E-001	1,000000000000000E+000	3,6189765E-002	38	4,5899973E+000	7,902939800354943E+001	3,7962562E-004
2	1	0	1	0	8,627989782038640E+001	4,3932262E-001	4,3864813E-001	9,320752509993744E-001	1,000000000000000E+000	3,7738923E-002	38	4,5899973E+000	8,072899796061392E+001	4,0885308E-004
2	1	0	1	0	8,797949777745089E+001	4,4272181E-001	4,4203526E-001	9,886761855534560E-001	1,000000000000000E+000	3,9387520E-002	38	4,5899973E+000	8,242859791767842E+001	4,3702972E-004
2	1	0	1	0	8,967889773452043E+001	4,4612062E-001	4,4544253E-001	1,032343369238314E+000	1,000000000000000E+000	4,1122973E-002	38	4,5899973E+000	8,412799787474796E+001	4,5984963E-004
2	1	0	1	0	9,137849769158493E+001	4,4951987E-001	4,4882947E-001	1,050858862630178E+000	1,000000000000000E+000	4,2913016E-002	38	4,5899973E+000	8,582759783181245E+001	4,7165641E-004
2	1	0	1	0	9,307809764864942E+001	4,5291904E-001	4,5225656E-001	1,031218523415276E+000	1,000000000000000E+000	4,4702861E-002	38	4,5899973E+000	8,752719778887695E+001	4,6637535E-004
2	1	0	1	0	9,477769760571391E+001	4,5631820E-001	4,5567268E-001	9,627996425197747E-001	1,000000000000000E+000	4,6416491E-002	38	4,5899973E+000	8,922679774594144E+001	4,3872150E-004
2	1	0	1	0	9,647729756277840E+001	4,5971739E-001	4,5906466E-001	8,657472631695651E-001	1,000000000000000E+000	4,7987133E-002	38	4,5899973E+000	9,092639770300593E+001	3,9743396E-004
2	1	0	1	0	9,817669751984795E+001	4,6311623E-001	4,6244663E-001	7,742922448979987E-001	1,000000000000000E+000	4,9392659E-002	38	4,5899973E+000	9,262579766007548E+001	3,5806885E-004
2	1	0	1	0	9,987629747691244E+001	4,6651542E-001	4,6584612E-001	7,103246294946484E-001	1,000000000000000E+000	5,0666545E-002	38	4,5899973E+000	9,432539761713997E+001	3,3090197E-004
2	1	0	1	0	1,015758974339769E+002	4,6991464E-001	4,6923560E-001	6,701878853535690E-001	1,000000000000000E+000	5,1853843E-002	38	4,5899973E+000	9,602499757420446E+001	3,1447603E-004
2	1	0	1	0	1,032754973910414E+002	4,7331384E-001	4,7264066E-001	6,439404214514823E-001	1,000000000000000E+000	5,2985784E-002	38	4,5899973E+000	9,772459753126896E+001	3,0435243E-004
2	1	0	1	0	1,049749973481084E+002	4,7671279E-001	4,7605386E-001	6,231524496335430E-001	1,000000000000000E+000	5,4079037E-002	38	4,5899973E+000	9,942409748833597E+001	2,9665412E-004
2	1	0	1	0	1,066744973051755E+002	4,8011181E-001	4,7946718E-001	6,063647828259273E-001	1,000000000000000E+000	5,5141520E-002	38	4,5899973E+000	1,011235974454030E+002	2,9073202E-004
2	1	0	1	0	1,083740972622400E+002	4,8351106E-001	4,8284596E-001	5,909262165779428E-001	1,000000000000000E+000	5,6176111E-002	38	4,5899973E+000	1,028231974024675E+002	2,8532633E-004
2	1	0	1	0	1,100736972193044E+002	4,8691022E-001	4,8625970E-001	5,753690658320401E-001	1,000000000000000E+000	5,7184741E-002	38	4,5899973E+000	1,045227973595320E+002	2,7977879E-004
2	1	0	1	0	1,117732971763689E+002	4,9030945E-001	4,8964295E-001	5,635101222265690E-001	1,000000000000000E+000	5,8170713E-002	38	4,5899973E+000	1,062223973165965E+002	2,7591875E-004
2	1	0	1	0	1,134726971334385E+002	4,9370825E-001	4,9304038E-001	5,524442163902530E-001	1,000000000000000E+000	5,9137199E-002	38	4,5899973E+000	1,079217972736660E+002	2,7237731E-004
2	1	0	1	0	1,151722970905030E+002	4,9710745E-001	4,9641311E-001	5,429648901093644E-001	1,000000000000000E+000	6,0086027E-002	38	4,5899973E+000	1,096213972307305E+002	2,6953488E-004
2	1	0	1	0	1,168718970475675E+002	5,0050658E-001	4,9982348E-001	5,368751188750833E-001	1,000000000000000E+000	6,1021861E-002	38	4,5899973E+000	1,113209971877950E+002	2,6834279E-004
2	1	0	1	0	1,185714970046320E+002	5,0390577E-001	5,0322986E-001	5,343506195625949E-001	1,000000000000000E+000	6,1950713E-002	38	4,5899973E+000	1,130205971448595E+002	2,6890117E-004
2	1	0	1	0	1,202710969616965E+002	5,0730497E-001	5,0660789E-001	5,363973502255330E-001	1,000000000000000E+000	6,2878892E-002	38	4,5899973E+000	1,147201971019240E+002	2,7174313E-004
2	1	0	1	0	1,219704969187660E+002	5,1070380E-001	5,1003253E-001	5,426178124158314E-001	1,000000000000000E+000	6,3814543E-002	38	4,5899978E+000	1,164195970589935E+002	2,7675275E-004
2	1	0	1	0	1,236700968758305E+002	5,1410300E-001	5,1343089E-001	5,568237456491385E-001	1,000000000000000E+000	6,4767510E-002	38	4,5899973E+000	1,181191970160580E+002	2,8589051E-004
2	1	0	1	0	1,253696968328950E+002	5,1750219E-001	5,1683486E-001	5,797955806178283E-001	1,000000000000000E+000	6,5752581E-002	38	4,5899973E+000	1,198187969731225E+002	2,9965857E-004
2	1	0	1	0	1,270692967899595E+002	5,2090138E-001	5,2023357E-001	6,137384777606492E-001	1,000000000000000E+000	6,6785417E-002	38	4,5899973E+000	1,215183969301870E+002	3,1928736E-004
2	1	0	1	0	1,287686967470290E+002	5,2430016E-001	5,2362382E-001	6,600257109236836E-001	1,000000000000000E+000	6,7886584E-002	38	4,5899973E+000	1,232177968872566E+002	3,4560519E-004
2	1	0	1	0	1,304682967040935E+002	5,2769941E-001	5,2705890E-001	7,385910997204945E-001	1,000000000000000E+000	6,9096372E-002	38	4,5899973E+000	1,249173968443210E+002	3,8928102E-004
2	1	0	1	0	1,321678966611580E+002	5,3109860E-001	5,3046322E-001	8,223476633662372E-001	1,000000000000000E+000	7,0441023E-002	38	4,5899973E+000	1,266169968013855E+002	4,3622518E-004
2	1	0	1	0	1,338674966182225E+002	5,3449774E-001	5,3385645E-001	9,376079602659733E-001	1,000000000000000E+000	7,1955398E-002	38	4,5899973E+000	1,283165967584500E+002	5,0054805E-004
2	1	0	1	0	1,355670965752870E+002	5,3789693E-001	5,3725576E-001	1,088228490078262E+000	1,000000000000000E+000	7,3695809E-002	38	4,5899973E+000	1,300161967155145E+002	5,8465701E-004
2	1	0	1	0	1,372664965323565E+002	5,4129577E-001	5,4064792E-001	1,282191679264130E+000	1,000000000000000E+000	7,5728327E-002	38	4,5899973E+000	1,317155966725841E+002	6,9321424E-004
2	1	0	1	0	1,389660964894210E+002	5,4469496E-001	5,4404545E-001	1,531165678847749E+000	1,000000000000000E+000	7,8138649E-002	38	4,5899973E+000	1,334151966296486E+002	8,3302375E-004
2	1	0	1	0	1,406656964464855E+002	5,4809421E-001	5,4743087E-001	1,845413870080765E+000	1,000000000000000E+000	8,1028283E-002	38	4,5899973E+000	1,351147965867131E+002	1,0102366E-003
2	1	0	1	0	1,423652964035500E+002	5,5149335E-001	5,5084312E-001	2,235775161351370E+000	1,000000000000000E+000	8,4516592E-002	38	4,5899973E+000	1,368143965437775E+002	1,2315614E-003
2	1	0	1	0	1,440648963606145E+002	5,5489254E-001	5,5425966E-001	2,713436117866349E+000	1,000000000000000E+000	8,8742472E-002	38	4,5899973E+000	1,385139965008420E+002	1,5039481E-003
2	1	0	1	0	1,457642963176841E+002	5,5829138E-001	5,5763793E-001	3,290265265868143E+000	1,000000000000000E+000	9,3864650E-002	38	4,5899973E+000	1,402133964579116E+002	1,8347767E-003
2	1	0	1	0	1,474638962747485E+002	5,6169057E-001	5,6103551E-001	3,970022290683971E+000	1,000000000000000E+000	1,0005528E-001	38	4,5899973E+000	1,419129964149761E+002	2,2273236E-003
2	1	0	1	0	1,491634962318130E+002	5,6508976E-001	5,6441808E-001	4,759937311630233E+000	1,000000000000000E+000	1,0749760E-001	38	4,5899973E+000	1,436125963720406E+002	2,6865946E-003
2	1	0	1	0	1,508630961888775E+002	5,6848896E-001	5,6782335E-001	5,678974580331595E+000	1,000000000000000E+000	1,1639669E-001	38	4,5899973E+000	1,453121963291051E+002	3,2246544E-003
2	1	0	1	0	1,525625961459446E+002	5,7188797E-001	5,7122803E-001	6,747257320941664E+000	1,000000000000000E+000	1,2697321E-001	38	4,5899978E+000	1,470116962861721E+002	3,8542226E-003
2	1	0	1	0	1,542620961030116E+002	5,7528692E-001	5,7464558E-001	7,887814298409495E+000	1,000000000000000E+000	1,3943599E-001	38	4,5899978E+000	1,487111962432391E+002	4,5326976E-003
2	1	0	1	0	1,559616960600761E+002	5,7868618E-001	5,7802802E-001	9,277543803367678E+000	1,000000000000000E+000	1,5404415E-001	38	4,5899973E+000	1,504107962003036E+002	5,3626802E-003
2	1	0	1	0	1,576612960171406E+002	5,8208531E-001	5,8143908E-001	1,059829112376053E+001	1,000000000000000E+000	1,7096108E-001	38	4,5899973E+000	1,521103961573681E+002	6,1622607E-003
2	1	0	1	0	1,593608959742051E+002	5,8548456E-001	5,8482999E-001	1,230327435557550E+001	1,000000000000000E+000	1,9047825E-001	38	4,5899973E+000	1,538099961144326E+002	7,1953237E-003
2	1	0	1	0	1,610602959312746E+002	5,8888328E-001	5,8822858E-001	1,392776488526851E+001	1,000000000000000E+000	2,1287434E-001	38	4,5899973E+000	1,555093960715021E+002	8,1927096E-003
2	1	0	1	0	1,627598958883391E+002	5,9228253E-001	5,9161246E-001	1,572459165011060E+001	1,000000000000000E+000	2,3822361E-001	38	4,5899978E+000	1,572089960285666E+002	9,3028648E-003
2	1	0	1	0	1,644594958454036E+002	5,9568179E-001	5,9500307E-001	1,765639730779665E+001	1,000000000000000E+000	2,6661909E-001	38	4,5899973E+000	1,589085959856311E+002	1,0505610E-002
2	1	0	1	0	1,661590958024681E+002	5,9908092E-001	5,9840131E-001	1,921191730037776E+001	1,000000000000000E+000	2,9801080E-001	38	4,5899973E+000	1,606081959426956E+002	1,1496437E-002
2	1	0	1	0	1,678584957595376E+002	6,0247976E-001	6,0178745E-001	2,171889419402879E+001	1,000000000000000E+000	3,3270699E-001	38	4,5899973E+000	1,623075958997651E+002	1,3070158E-002
2	1	0	1	0	1,695580957166021E+002	6,0587901E-001	6,0519338E-001	2,326148640650825E+001	1,000000000000000E+000	3,7095723E-001	38	4,5899973E+000	1,640071958568296E+002	1,4077698E-002
2	1	0	1	0	1,712576956736666E+002	6,0927814E-001	6,0859543E-001	2,593986958275616E+001	1,000000000000000E+000	4,1353872E-001	38	4,5899973E+000	1,657067958138941E+002	1,5786886E-002
2	1	0	1	0	1,729572956307311E+002	6,1267734E-001	6,1197394E-001	2,860213598261430E+001	1,000000000000000E+000	4,6008843E-001	38	4,5899973E+000	1,674063957709586E+002	1,7503763E-002
2	1	0	1	0	1,746568955877956E+002	6,1607659E-001	6,1537153E-001	3,045748771621317E+001	1,000000000000000E+000	5,0991958E-001	38	4,5899973E+000	1,691059957280231E+002	1,8742671E-002
2	1	0	1	0	1,763562955448651E+002	6,1947536E-001	6,1877602E-001	3,235334399768524E+001	1,000000000000000E+000	5,6321460E-001	38	4,5899973E+000	1,708053956850927E+002	2,0019474E-002
2	1	0	1	0	1,780558955019296E+002	6,2287456E-001	6,2218767E-001	3,560943535372496E+001	1,000000000000000E+000	6,2065738E-001	38	4,5899973E+000	1,725049956421572E+002	2,2155752E-002
2	1	0	1	0	1,797054954602572E+002	6,2617379E-001	6,2551284E-001	3,840864306375875E+001	1,000000000000000E+000	6,8141580E-001	38	4,5899978E+000	1,741545956004848E+002	2,4025099E-002
2	1	0	1	0	1,805558954387743E+002	6,2607372E-001	6,2540549E-001	3,804346458037811E+001	1,000000000000000E+000	7,1394992E-001	38	4,5899973E+000	1,750049955790018E+002	2,3792591E-002
2	1	0	1	0	1,822554953958388E+002	6,2267452E-001	6,2198496E-001	3,677928131249382E+001	1,000000000000000E+000	7,7667570E-001	38	4,5899973E+000	1,767045955360663E+002	2,2876160E-002
2	1	0	1	0	1,839548953529084E+002	6,1927575E-001	6,1859697E-001	3,229975851250748E+001	1,000000000000000E+000	8,3494103E-001	38	4,5899973E+000	1,784039954931359E+002	1,9980533E-002
2	1	0	1	0	1,856544953099728E+002	6,1587650E-001	6,1518323E-001	3,114122164947563E+001	1,000000000000000E+000	8,8928252E-001	38	4,5899973E+000	1,801035954502004E+002	1,9157557E-002
2	1	0	1	0	1,873540952670373E+002	6,1247736E-001	6,1177844E-001	2,926589117534400E+001	1,000000000000000E+000	9,4070154E-001	38	4,5899973E+000	1,818031954072649E+002	1,7904241E-002
2	1	0	1	0	1,890536952241018E+002	6,0907811E-001	6,0837531E-001	2,746265501497498E+001	1,000000000000000E+000	9,8845714E-001	38	4,5899973E+000	1,835027953643294E+002	1,6707601E-002
2	1	0	1	0	1,907532951811663E+002	6,0567898E-001	6,0498661E-001	2,378936724047568E+001	1,000000000000000E+000	1,0316710E+000	38	4,5899973E+000	1,852023953213939E+002	1,4392248E-002
2	1	0	1	0	1,924526951382359E+002	6,0228014E-001	6,0158157E-001	2,299601837803613E+001	1,000000000000000E+000	1,0710148E+000	38	4,5899973E+000	1,869017952784634E+002	1,3833981E-002
2	1	0	1	0	1,941522950953004E+002	5,9888095E-001	5,9820801E-001	2,021677745577685E+001	1,000000000000000E+000	1,1074262E+000	38	4,5899973E+000	1,886013952355279E+002	1,2093838E-002
2	1	0	1	0	1,958518950523649E+002	5,9548175E-001	5,9481621E-001	1,817286535827478E+001	1,000000000000000E+000	1,1402267E+000	38	4,5899973E+000	1,903009951925924E+002	1,0809515E-002
2	1	0	1	0	1,975514950094293E+002	5,9208256E-001	5,9140456E-001	1,615013728319531E+001	1,000000000000000E+000	1,1692660E+000	38	4,5899973E+000	1,920005951496569E+002	9,5512643E-003
2	1	0	1	0	1,992508949664989E+002	5,8868372E-001	5,8801371E-001	1,494328523035236E+001	1,000000000000000E+000	1,1957715E+000	38	4,5899978E+000	1,936999951067264E+002	8,7868562E-003
2	1	0	1	0	2,009504949235634E+002	5,8528459E-001	5,8462667E-001	1,350180569540862E+001	1,000000000000000E+000	1,2195201E+000	38	4,5899978E+000	1,953995950637909E+002	7,8935158E-003
2	1	0	1	0	2,026500948806279E+002	5,8188534E-001	5,8122194E-001	1,148653202756546E+001	1,000000000000000E+000	1,2406228E+000	38	4,5899973E+000	1,970991950208554E+002	6,6762245E-003
2	1	0	1	0	2,043496948376924E+002	5,7848614E-001	5,7782197E-001	1,035385654277533E+001	1,000000000000000E+000	1,2590108E+000	38	4,5899973E+000	1,987987949779199E+002	5,9826858E-003
2	1	0	1	0	2,060492947947569E+002	5,7508695E-001	5,7444865E-001	8,760618875700033E+000	1,000000000000000E+000	1,2751567E+000	38	4,5899973E+000	2,004983949349844E+002	5,0325259E-003
2	1	0	1	0	2,077486947518264E+002	5,7168812E-001	5,7102638E-001	7,492559690356757E+000	1,000000000000000E+000	1,2889235E+000	38	4,5899978E+000	2,021977948920539E+002	4,2784493E-003
2	1	0	1	0	2,094482947088909E+002	5,6828892E-001	5,6763411E-001	6,455990034394318E+000	1,000000000000000E+000	1,3007059E+000	38	4,5899978E+000	2,038973948491184E+002	3,6646402E-003
2	1	0	1	0	2,111478946659554E+002	5,6488973E-001	5,6421924E-001	5,457337644442887E+000	1,000000000000000E+000	1,3107742E+000	38	4,5899973E+000	2,055969948061829E+002	3,0791350E-003
2	1	0	1	0	2,128474946230199E+002	5,6149054E-001	5,6083709E-001	4,528450456499250E+000	1,000000000000000E+000	1,3192034E+000	38	4,5899973E+000	2,072965947632474E+002	2,5397229E-003
2	1	0	1	0	2,145468945800894E+002	5,5809176E-001	5,5744135E-001	3,741293939273387E+000	1,000000000000000E+000	1,3261857E+000	38	4,5899973E+000	2,089959947203170E+002	2,0855519E-003
2	1	0	1	0	2,162464945371539E+002	5,5469251E-001	5,5404192E-001	3,074695460465065E+000	1,000000000000000E+000	1,3319335E+000	38	4,5899973E+000	2,106955946773815E+002	1,7035102E-003
2	1	0	1	0	2,179460944942184E+002	5,5129331E-001	5,5062860E-001	2,506435028260128E+000	1,000000000000000E+000	1,3366362E+000	38	4,5899973E+000	2,123951946344459E+002	1,3801148E-003
2	1	0	1	0	2,196456944512829E+002	5,4789418E-001	5,4720688E-001	2,025607398389425E+000	1,000000000000000E+000	1,3404529E+000	38	4,5899973E+000	2,140947945915104E+002	1,1084263E-003
2	1	0	1	0	2,213452944083474E+002	5,4449493E-001	5,4381645E-001	1,625086019540820E+000	1,000000000000000E+000	1,3435203E+000	38	4,5899973E+000	2,157943945485749E+002	8,8374852E-004
2	1	0	1	0	2,230446943654169E+002	5,4109615E-001	5,4041857E-001	1,302266565053923E+000	1,000000000000000E+000	1,3459784E+000	38	4,5899973E+000	2,174937945056445E+002	7,0376904E-004
2	1	0	1	0	2,247442943224814E+002	5,3769696E-001	5,3702986E-001	1,032168289474207E+000	1,000000000000000E+000	1,3479323E+000	38	4,5899973E+000	2,191933944627090E+002	5,5430521E-004
2	1	0	1	0	2,264438942795459E+002	5,3429776E-001	5,3363806E-001	8,153829721883241E-001	1,000000000000000E+000	1,3494724E+000	38	4,5899973E+000	2,208929944197735E+002	4,3511938E-004
2	1	0	1	0	2,281434942366104E+002	5,3089851E-001	5,3022462E-001	6,387863165845912E-001	1,000000000000000E+000	1,3506815E+000	38	4,5899973E+000	2,225925943768380E+002	3,3870022E-004
2	1	0	1	0	2,298430941936749E+002	5,2749938E-001	5,2682149E-001	4,980547971562785E-001	1,000000000000000E+000	1,3516231E+000	38	4,5899973E+000	2,242921943339024E+002	2,6238596E-004
2	1	0	1	0	2,315424941507445E+002	5,2410054E-001	5,2341658E-001	3,872110289812780E-001	1,000000000000000E+000	1,3523517E+000	38	4,5899973E+000	2,259915942909720E+002	2,0267267E-004
2	1	0	1	0	2,332420941078090E+002	5,2070141E-001	5,2001077E-001	3,001309656583233E-001	1,000000000000000E+000	1,3529134E+000	38	4,5899973E+000	2,276911942480365E+002	1,5607133E-004
2	1	0	1	0	2,349416940648734E+002	5,1730216E-001	5,1661855E-001	2,317578059891202E-001	1,000000000000000E+000	1,3533440E+000	38	4,5899973E+000	2,293907942051010E+002	1,1973038E-004
2	1	0	1	0	2,366412940219379E+002	5,1390296E-001	5,1321059E-001	1,787329830102875E-001	1,000000000000000E+000	1,3536717E+000	38	4,5899973E+000	2,310903941621655E+002	9,1727663E-005
2	1	0	1	0	2,383407939790050E+002	5,1050395E-001	5,0980628E-001	1,383410884045833E-001	1,000000000000000E+000	1,3539218E+000	38	4,5899973E+000	2,327898941192325E+002	7,0527152E-005
2	1	0	1	0	2,400402939360720E+002	5,0710493E-001	5,0639063E-001	1,053218212548925E-001	1,000000000000000E+000	1,3541087E+000	38	4,5899978E+000	2,344893940762995E+002	5,3333984E-005
2	1	0	1	0	2,417398938931365E+002	5,0370574E-001	5,0300658E-001	7,908196641338350E-002	1,000000000000000E+000	1,3542461E+000	38	4,5899973E+000	2,361889940333640E+002	3,9778748E-005
2	1	0	1	0	2,434394938502010E+002	5,0030655E-001	4,9960977E-001	5,919431127479040E-002	1,000000000000000E+000	1,3543451E+000	38	4,5899973E+000	2,378885939904285E+002	2,9574056E-005
2	1	0	1	0	2,451390938072655E+002	4,9690738E-001	4,9621263E-001	4,323845337003619E-002	1,000000000000000E+000	1,3544136E+000	38	4,5899973E+000	2,395881939474930E+002	2,1455468E-005
2	1	0	1	0	2,468384937643350E+002	4,9350858E-001	4,9280408E-001	2,931750246150222E-002	1,000000000000000E+000	1,3544564E+000	38	4,5899973E+000	2,412875939045625E+002	1,4447784E-005
2	1	0	1	0	2,485380937213995E+002	4,9010941E-001	4,8941210E-001	1,778380172358685E-002	1,000000000000000E+000	1,3544780E+000	38	4,5899973E+000	2,429871938616270E+002	8,7036078E-006
2	1	0	1	0	2,502376936784640E+002	4,8671022E-001	4,8601139E-001	8,579047261768100E-003	1,000000000000000E+000	1,3544822E+000	38	4,5899973E+000	2,446867938186915E+002	4,1695148E-006
2	1	0	1	0	2,519372936355285E+002	4,8331100E-001	4,8262921E-001	-7,647634304080060E-004	1,000000000000000E+000	1,3544707E+000	38	4,5899973E+000	8,497999785322463E-001	-3,6909717E-007
2	1	0	1	0	2,536368935925930E+002	4,7991180E-001	4,7921178E-001	-8,598009846311941E-003	1,000000000000000E+000	1,3544451E+000	38	4,5899973E+000	2,549399935596739E+000	-4,1202675E-006
2	1	0	1	0	2,553362935496625E+002	4,7651300E-001	4,7581369E-001	-1,653127428810053E-002	1,000000000000000E+000	1,3544060E+000	38	4,5899973E+000	4,248799892666284E+000	-7,8658068E-006
2	0	0	1	0	2,570358935067270E+002	4,7311383E-001	4,7243220E-001	-2,301983630648208E-002	1,000000000000000E+000	1,3543552E+000	38	4,5899973E+000	5,948399849730777E+000	-1,0875312E-005
2	0	0	1	0	2,587354934637915E+002	4,6971461E-001	4,6901795E-001	-2,996113714607472E-002	1,000000000000000E+000	1,3542922E+000	38	4,5899973E+000	7,647999806795269E+000	-1,4052312E-005
2	0	0	1	0	2,604350934208560E+002	4,6631545E-001	4,6563646E-001	-3,719312793253982E-002	1,000000000000000E+000	1,3542171E+000	38	4,5899973E+000	9,347599763859762E+000	-1,7318476E-005
2	0	0	1	0	2,621344933779255E+002	4,6291661E-001	4,6222743E-001	-4,505863928140341E-002	1,000000000000000E+000	1,3541291E+000	38	4,5899973E+000	1,104699972092931E+001	-2,0827340E-005
2	0	0	1	0	2,638340933349900E+002	4,5951736E-001	4,5883748E-001	-5,304057801369511E-002	1,000000000000000E+000	1,3540273E+000	38	4,5899973E+000	1,274659967799380E+001	-2,4337005E-005
2	0	0	1	0	2,655336932920545E+002	4,5611817E-001	4,5545176E-001	-6,186930414580200E-002	1,000000000000000E+000	1,3539113E+000	38	4,5899973E+000	1,444619963505829E+001	-2,8178483E-005
2	0	0	1	0	2,672332932491190E+002	4,5271903E-001	4,5204678E-001	-7,218224396301809E-002	1,000000000000000E+000	1,3537791E+000	38	4,5899973E+000	1,614579959212278E+001	-3,2629752E-005
2	0	0	1	0	2,689328932061835E+002	4,4931984E-001	4,4864973E-001	-8,205961000571360E-002	1,000000000000000E+000	1,3536298E+000	38	4,5899973E+000	1,784539954918728E+001	-3,6816022E-005
2	0	0	1	0	2,706322931632531E+002	4,4592097E-001	4,4524300E-001	-9,470831372248911E-002	1,000000000000000E+000	1,3534615E+000	38	4,5899973E+000	1,954479950625682E+001	-4,2168213E-005
2	0	0	1	0	2,723318931203175E+002	4,4252181E-001	4,4183487E-001	-1,070913715135353E-001	1,000000000000000E+000	1,3532723E+000	38	4,5899973E+000	2,124439946332132E+001	-4,7316702E-005
2	0	0	1	0	2,740314930773820E+002	4,3912259E-001	4,3843046E-001	-1,205787697761984E-001	1,000000000000000E+000	1,3530608E+000	38	4,5899973E+000	2,294399942038581E+001	-5,2865405E-005
2	0	0	1	0	2,757310930344465E+002	4,3572342E-001	4,3503401E-001	-1,360443078293191E-001	1,000000000000000E+000	1,3528254E+000	38	4,5899973E+000	2,464359937745030E+001	-5,9183902E-005
2	0	0	1	0	2,774305929915135E+002	4,3232441E-001	4,3162134E-001	-1,504664569348236E-001	1,000000000000000E+000	1,3525649E+000	38	4,5899973E+000	2,634309933451732E+001	-6,4944536E-005
2	0	0	1	0	2,791300929485806E+002	4,2892545E-001	4,2822936E-001	-1,651292422030584E-001	1,000000000000000E+000	1,3522788E+000	38	4,5899973E+000	2,804259929158434E+001	-7,0713191E-005
2	0	0	1	0	2,808296929056451E+002	4,2552623E-001	4,2482474E-001	-1,812901990189522E-001	1,000000000000000E+000	1,3519666E+000	38	4,5899973E+000	2,974219924864883E+001	-7,7016564E-005
2	0	0	1	0	2,825292928627096E+002	4,2212704E-001	4,2144114E-001	-1,960332133616265E-001	1,000000000000000E+000	1,3516289E+000	38	4,5899973E+000	3,144179920571332E+001	-8,2616461E-005
2	0	0	1	0	2,842288928197740E+002	4,1872782E-001	4,1805089E-001	-2,129451085424452E-001	1,000000000000000E+000	1,3512639E+000	38	4,5899973E+000	3,314139916277782E+001	-8,9021894E-005
2	0	0	1	0	2,859282927768436E+002	4,1532904E-001	4,1463622E-001	-2,272540614751865E-001	1,000000000000000E+000	1,3508729E+000	38	4,5899973E+000	3,484079911984736E+001	-9,4227769E-005
2	0	0	1	0	2,876278927339081E+002	4,1192982E-001	4,1122118E-001	-2,437792977636462E-001	1,000000000000000E+000	1,3504560E+000	38	4,5899973E+000	3,654039907691185E+001	-1,0024721E-004
2	0	0	1	0	2,893274926909726E+002	4,0853062E-001	4,0782699E-001	-2,549908740840755E-001	1,000000000000000E+000	1,3500152E+000	38	4,5899973E+000	3,823999903397635E+001	-1,0399216E-004
2	0	0	1	0	2,910270926480371E+002	4,0513143E-001	4,0441859E-001	-2,660964801391938E-001	1,000000000000000E+000	1,3495554E+000	38	4,5899973E+000	3,993959899104084E+001	-1,0761436E-004
2	0	0	1	0	2,927266926051016E+002	4,0173224E-001	4,0102291E-001	-2,754339045468002E-001	1,000000000000000E+000	1,3490782E+000	38	4,5899973E+000	4,163919894810533E+001	-1,1045531E-004
2	0	0	1	0	2,944260925621711E+002	3,9833343E-001	3,9762512E-001	-2,822272159303854E-001	1,000000000000000E+000	1,3485876E+000	38	4,5899973E+000	4,333859890517488E+001	-1,1222063E-004
2	0	0	1	0	2,961256925192356E+002	3,9493418E-001	3,9422938E-001	-2,871556319838309E-001	1,000000000000000E+000	1,3480874E+000	38	4,5899973E+000	4,503819886223937E+001	-1,1320518E-004
2	0	0	1	0	2,978252924763001E+002	3,9153501E-001	3,9083508E-001	-2,887058485097889E-001	1,000000000000000E+000	1,3475820E+000	38	4,5899973E+000	4,673779881930386E+001	-1,1283637E-004
2	0	0	1	0	2,995248924333646E+002	3,8813585E-001	3,8743562E-001	-2,893004125997503E-001	1,000000000000000E+000	1,3470743E+000	38	4,5899973E+000	4,843739877636835E+001	-1,1208528E-004
2	0	0	1	0	3,012243923904316E+002	3,8473684E-001	3,8403326E-001	-2,883964786570379E-001	1,000000000000000E+000	1,3465675E+000	38	4,5899973E+000	5,013689873343537E+001	-1,1075384E-004
2	0	0	1	0	3,029238923474986E+002	3,8133785E-001	3,8063976E-001	-2,847843769882257E-001	1,000000000000000E+000	1,3460656E+000	38	4,5899973E+000	5,183639869050239E+001	-1,0840026E-004
2	0	0	1	0	3,046234923045631E+002	3,7793863E-001	3,7724966E-001	-2,789390014474744E-001	1,000000000000000E+000	1,3455716E+000	38	4,5899973E+000	5,353599864756688E+001	-1,0522964E-004
2	0	0	1	0	3,063230922616276E+002	3,7453946E-001	3,7384087E-001	-2,738597464908845E-001	1,000000000000000E+000	1,3450866E+000	38	4,5899973E+000	5,523559860463138E+001	-1,0237996E-004
2	0	0	1	0	3,080226922186921E+002	3,7114024E-001	3,7043485E-001	-2,653663788195491E-001	1,000000000000000E+000	1,3446139E+000	38	4,5899973E+000	5,693519856169587E+001	-9,8300952E-005
2	0	0	1	0	3,097220921757616E+002	3,6774141E-001	3,6704159E-001	-2,567274547164642E-001	1,000000000000000E+000	1,3441559E+000	38	4,5899973E+000	5,863459851876542E+001	-9,4229654E-005
2	0	0	1	0	3,114216921328261E+002	3,6434227E-001	3,6363798E-001	-2,479697984079019E-001	1,000000000000000E+000	1,3437132E+000	38	4,5899973E+000	6,033419847582991E+001	-9,0171241E-005
2	0	0	1	0	3,131212920898906E+002	3,6094308E-001	3,6022699E-001	-2,391897242487762E-001	1,000000000000000E+000	1,3432854E+000	38	4,5899973E+000	6,203379843289440E+001	-8,6162596E-005
2	0	0	1	0	3,148208920469551E+002	3,5754383E-001	3,5682115E-001	-2,291858657190117E-001	1,000000000000000E+000	1,3428743E+000	38	4,5899973E+000	6,373339838995889E+001	-8,1778366E-005
2	0	0	1	0	3,165204920040196E+002	3,5414466E-001	3,5342258E-001	-2,185818708165649E-001	1,000000000000000E+000	1,3424810E+000	38	4,5899973E+000	6,543299834702339E+001	-7,7251767E-005
2	0	0	1	0	3,182198919610892E+002	3,5074583E-001	3,5001880E-001	-2,086763202984157E-001	1,000000000000000E+000	1,3421048E+000	38	4,5899973E+000	6,713239830409293E+001	-7,3040632E-005
2	0	0	1	0	3,199194919181537E+002	3,4734663E-001	3,4662858E-001	-1,996857355591042E-001	1,000000000000000E+000	1,3417451E+000	38	4,5899973E+000	6,883199826115742E+001	-6,9216781E-005
2	0	0	1	0	3,216190918752181E+002	3,4394747E-001	3,4324533E-001	-1,904033946582997E-001	1,000000000000000E+000	1,3414011E+000	38	4,5899973E+000	7,053159821822192E+001	-6,5355074E-005
2	0	0	1	0	3,233186918322826E+002	3,4054828E-001	3,3984715E-001	-1,812961297976914E-001	1,000000000000000E+000	1,3410727E+000	38	4,5899973E+000	7,223119817528641E+001	-6,1612969E-005
2	0	0	1	0	3,250180917893522E+002	3,3714947E-001	3,3644256E-001	-1,733838397174754E-001	1,000000000000000E+000	1,3407593E+000	38	4,5899973E+000	7,393059813235595E+001	-5,8333702E-005
2	0	0	1	0	3,267176917464167E+002	3,3375025E-001	3,3303583E-001	-1,652252294323469E-001	1,000000000000000E+000	1,3404597E+000	38	4,5899973E+000	7,563019808942045E+001	-5,5025921E-005
2	0	0	1	0	3,284172917034812E+002	3,3035105E-001	3,2964486E-001	-1,578019629041689E-001	1,000000000000000E+000	1,3401736E+000	38	4,5899973E+000	7,732979804648494E+001	-5,2018604E-005
2	0	0	1	0	3,301168916605457E+002	3,2695189E-001	3,2625213E-001	-1,514213566222276E-001	1,000000000000000E+000	1,3398995E+000	38	4,5899973E+000	7,902939800354943E+001	-4,9401540E-005
2	0	0	1	0	3,318164916176102E+002	3,2355267E-001	3,2282791E-001	-1,457028390611297E-001	1,000000000000000E+000	1,3396361E+000	38	4,5899973E+000	8,072899796061392E+001	-4,7036941E-005
2	0	0	1	0	3,335158915746797E+002	3,2015392E-001	3,1943679E-001	-1,396522499545565E-001	1,000000000000000E+000	1,3393830E+000	38	4,5899973E+000	8,242839791768347E+001	-4,4610068E-005
2	0	0	1	0	3,352154915317442E+002	3,1675467E-001	3,1605121E-001	-1,341607558342468E-001	1,000000000000000E+000	1,3391401E+000	38	4,5899973E+000	8,412799787474796E+001	-4,2401669E-005
2	0	0	1	0	3,369150914888087E+002	3,1335545E-001	3,1264740E-001	-1,287222521285907E-001	1,000000000000000E+000	1,3389064E+000	38	4,5899973E+000	8,582759783181245E+001	-4,0244679E-005
2	0	0	1	0	3,386146914458732E+002	3,0995631E-001	3,0923253E-001	-1,241871885627461E-001	1,000000000000000E+000	1,3386819E+000	38	4,5899973E+000	8,752719778887695E+001	-3,8402719E-005
2	0	0	1	0	3,403141914029402E+002	3,0655727E-001	3,0586383E-001	-1,200844901009301E-001	1,000000000000000E+000	1,3384650E+000	38	4,5899973E+000	8,922669774594397E+001	-3,6729503E-005
2	0	0	1	0	3,420136913600072E+002	3,0315828E-001	3,0246773E-001	-1,154750438514892E-001	1,000000000000000E+000	1,3382554E+000	38	4,5899973E+000	9,092619770301098E+001	-3,4927474E-005
2	0	0	1	0	3,437132913170717E+002	2,9975909E-001	2,9908779E-001	-1,115786817704520E-001	1,000000000000000E+000	1,3380536E+000	38	4,5899973E+000	9,262579766007548E+001	-3,3371820E-005
2	0	0	1	0	3,454128912741362E+002	2,9635990E-001	2,9566798E-001	-1,073889962824498E-001	1,000000000000000E+000	1,3378593E+000	38	4,5899973E+000	9,432539761713997E+001	-3,1751486E-005
2	0	0	1	0	3,471124912312007E+002	2,9296067E-001	2,9226977E-001	-1,031534977565484E-001	1,000000000000000E+000	1,3376725E+000	38	4,5899973E+000	9,602499757420446E+001	-3,0148649E-005
2	0	0	1	0	3,488118911882702E+002	2,8956187E-001	2,8890255E-001	-1,003083215822334E-001	1,000000000000000E+000	1,3374918E+000	38	4,5899973E+000	9,772439753127401E+001	-2,8979330E-005
2	0	0	1	0	3,505114911453347E+002	2,8616267E-001	2,8549218E-001	-9,673168507069063E-002	1,000000000000000E+000	1,3373171E+000	38	4,5899973E+000	9,942399748833850E+001	-2,7616139E-005
2	0	0	1	0	3,522110911023992E+002	2,8276351E-001	2,8207791E-001	-9,302243519959924E-002	1,000000000000000E+000	1,3371487E+000	38	4,5899973E+000	1,011235974454030E+002	-2,6239573E-005
2	0	0	1	0	3,539106910594637E+002	2,7936429E-001	2,7868688E-001	-8,939143650139414E-002	1,000000000000000E+000	1,3369871E+000	38	4,5899973E+000	1,028231974024675E+002	-2,4912220E-005
2	0	0	1	1	3,550681910302228E+002	2,7696514E-001	2,7628088E-001	-8,182364702224731E-002	1,000000000000000E+000	1,3368804E+000	38	4,5899997E+000	1,039806973732266E+002	-2,2606309E-005