File: Tafel/FeCoNiCuMn.mpt
EC-Lab ASCII FILE
Nb header lines : 63

Cyclic Voltammetry

Run on channel : 1 (SN 1153)
User :
Electrode connection : standard
Potential control : Ewe
Ewe ctrl range : min = -2,50 V, max = 2,50 V
Ewe,I filtering : 50 kHz
Safety Limits :
	Do not start on E overload
Channel : Grounded
Acquisition started on : 12/16/2024 13:22:43.286
Technique started on : 12/16/2024 13:22:48.387
Loaded Setting File :  C:\Users\lab10\Desktop\Luka Suhadolnik\Maja Mejrema\23. julij 2024\K11-2_FeCoNiCuMn_N700C30m_AO50V5m\4 OER.mps
Saved on :
	File : 6 OER_03_CV_C01.mpr
	Directory : C:\Users\lab10\Desktop\Luka Suhadolnik\K12-3_FeCoNiCuMn\
	Host : 192.168.0.28
Device : SP-200 (SN 0067)
Address : USB
EC-Lab for windows v11.52 (software)
Internet server v11.52 (firmware)
Command interpretor v11.52 (firmware)
Electrode material :
Initial state :
Electrolyte :
Comments :
Cable : standard
Electrode surface area : 0,001 cm²
Characteristic mass : 0,001 g
Equivalent Weight : 0,000 g/eq.
Density : 0,000 g/cm3
Volume (V) : 0,001 cm³
Cycle Definition : Charge/Discharge alternance
Ei (V)              0,277
vs.                 Ref
dE/dt               2,000
dE/dt unit          mV/s
E1 (V)              0,677
vs.                 Ref
Step percent        85
N                   17
E range min (V)     -2,500
E range max (V)     2,500
I Range             100 mA
I Range min         Unset
I Range max         Unset
I Range init        Unset
Bandwidth           8
E2 (V)              0,277
vs.                 Ref
nc cycles           1
Reverse Scan        1
Ef (V)              0,277
vs.                 Ref

Modify on : 12/16/2024 13:26
nc cycles           0

mode	ox/red	error	control changes	counter inc.	time/s	control/V	Ewe/V	<I>/mA	cycle number	(Q-Qo)/C	I Range	Rcmp/Ohm	step time/s	P/W
2	1	0	1	0	5,100999871137901E+000	2,7701002E-001	2,7618948E-001	6,780205368995667E-001	1,000000000000000E+000	0,0000000E+000	38	5,6949992E+000	0,000000000000000E+000	1,8726214E-004
2	1	0	1	0	6,400699838304718E+000	2,7960923E-001	2,7874509E-001	6,072364413637297E-001	1,000000000000000E+000	8,3034602E-004	38	5,6949954E+000	8,497999785322463E-001	1,6926417E-004
2	1	0	1	0	8,100299795369210E+000	2,8300840E-001	2,8214049E-001	5,368550917971664E-001	1,000000000000000E+000	1,7990578E-003	38	5,6949954E+000	2,549399935596739E+000	1,5146856E-004
2	1	0	1	0	9,799899752433703E+000	2,8640759E-001	2,8553414E-001	4,872001305975004E-001	1,000000000000000E+000	2,6669910E-003	38	5,6949954E+000	4,248999892661232E+000	1,3911228E-004
2	1	0	1	0	1,149929970950325E+001	2,8980643E-001	2,8893629E-001	4,507501790346131E-001	1,000000000000000E+000	3,4625195E-003	38	5,6949954E+000	5,948399849730777E+000	1,3023808E-004
2	1	0	1	0	1,319889966656774E+001	2,9320562E-001	2,9232287E-001	4,224120799104369E-001	1,000000000000000E+000	4,2040115E-003	38	5,6949954E+000	7,647999806795269E+000	1,2348071E-004
2	1	0	1	0	1,489849962363223E+001	2,9660481E-001	2,9574633E-001	3,996231509826975E-001	1,000000000000000E+000	4,9017733E-003	38	5,6949954E+000	9,347599763859762E+000	1,1818708E-004
2	1	0	1	0	1,659809958069673E+001	3,0000401E-001	2,9913610E-001	3,809411951539232E-001	1,000000000000000E+000	5,5648703E-003	38	5,6949954E+000	1,104719972092425E+001	1,1395326E-004
2	1	0	1	0	1,829749953776627E+001	3,0340281E-001	3,0252513E-001	3,650056850623278E-001	1,000000000000000E+000	6,1985892E-003	38	5,6949954E+000	1,274659967799380E+001	1,1042340E-004
2	1	0	1	0	1,999709949483076E+001	3,0680200E-001	3,0592212E-001	3,515061510527668E-001	1,000000000000000E+000	6,8073729E-003	38	5,6949954E+000	1,444619963505829E+001	1,0753351E-004
2	1	0	1	0	2,169669945189526E+001	3,1020117E-001	3,0931768E-001	3,399969383559949E-001	1,000000000000000E+000	7,3951161E-003	38	5,6949954E+000	1,614579959212278E+001	1,0516706E-004
2	1	0	1	0	2,339629940895975E+001	3,1360039E-001	3,1270775E-001	3,303662156443483E-001	1,000000000000000E+000	7,9650916E-003	38	5,6949954E+000	1,784539954918728E+001	1,0330808E-004
2	1	0	1	0	2,509569936602929E+001	3,1699917E-001	3,1611714E-001	3,220992945130212E-001	1,000000000000000E+000	8,5197855E-003	38	5,6949954E+000	1,954479950625682E+001	1,0182110E-004
2	1	0	1	0	2,679529932309379E+001	3,2039839E-001	3,1951824E-001	3,144897990932147E-001	1,000000000000000E+000	9,0608951E-003	38	5,6949954E+000	2,124439946332132E+001	1,0048522E-004
2	1	0	1	0	2,849489928015828E+001	3,2379758E-001	3,2291421E-001	3,079467365471258E-001	1,000000000000000E+000	9,5901359E-003	38	5,6949954E+000	2,294399942038581E+001	9,9440374E-005
2	1	0	1	0	3,019449923722277E+001	3,2719678E-001	3,2632875E-001	3,017226475672127E-001	1,000000000000000E+000	1,0108384E-002	38	5,6949954E+000	2,464359937745030E+001	9,8460776E-005
2	1	0	1	0	3,189389919429232E+001	3,3059561E-001	3,2972941E-001	2,961986288867382E-001	1,000000000000000E+000	1,0616894E-002	38	5,6949954E+000	2,634299933451985E+001	9,7665397E-005
2	1	0	1	0	3,359349915135681E+001	3,3399478E-001	3,3312529E-001	2,914644211806736E-001	1,000000000000000E+000	1,1116510E-002	38	5,6949954E+000	2,804259929158434E+001	9,7094169E-005
2	1	0	1	0	3,529309910842130E+001	3,3739397E-001	3,3651289E-001	2,865656678714745E-001	1,000000000000000E+000	1,1608131E-002	38	5,6949954E+000	2,974219924864883E+001	9,6433039E-005
2	1	0	1	0	3,699269906548579E+001	3,4079316E-001	3,3990762E-001	2,823068121769481E-001	1,000000000000000E+000	1,2092022E-002	38	5,6949954E+000	3,144179920571332E+001	9,5958232E-005
2	1	0	1	0	3,869209902255534E+001	3,4419200E-001	3,4330091E-001	2,783719636668347E-001	1,000000000000000E+000	1,2568884E-002	38	5,6949954E+000	3,314119916278287E+001	9,5565345E-005
2	1	0	1	0	4,039169897961983E+001	3,4759116E-001	3,4670132E-001	2,746803397033384E-001	1,000000000000000E+000	1,3039364E-002	38	5,6949954E+000	3,484079911984736E+001	9,5232041E-005
2	1	0	1	0	4,209129893668432E+001	3,5099036E-001	3,5009584E-001	2,718307101730519E-001	1,000000000000000E+000	1,3504275E-002	38	5,6949954E+000	3,654039907691185E+001	9,5166797E-005
2	1	0	1	0	4,379089889374882E+001	3,5438955E-001	3,5350046E-001	2,687450970650211E-001	1,000000000000000E+000	1,3964153E-002	38	5,6949954E+000	3,823999903397635E+001	9,5001516E-005
2	1	0	1	0	4,549029885081836E+001	3,5778838E-001	3,5691297E-001	2,666384033570304E-001	1,000000000000000E+000	1,4419666E-002	38	5,6949954E+000	3,993939899104589E+001	9,5166703E-005
2	1	0	1	0	4,718989880788286E+001	3,6118755E-001	3,6030549E-001	2,640826079333258E-001	1,000000000000000E+000	1,4871103E-002	38	5,6949954E+000	4,163899894811038E+001	9,5150412E-005
2	1	0	1	0	4,888949876494735E+001	3,6458677E-001	3,6372596E-001	2,615559120260977E-001	1,000000000000000E+000	1,5318140E-002	38	5,6949954E+000	4,333859890517488E+001	9,5134674E-005
2	1	0	1	0	5,058909872201184E+001	3,6798596E-001	3,6711329E-001	2,597157903482397E-001	1,000000000000000E+000	1,5761578E-002	38	5,6949954E+000	4,503819886223937E+001	9,5345116E-005
2	1	0	1	0	5,228849867908139E+001	3,7138477E-001	3,7051454E-001	2,572969580601656E-001	1,000000000000000E+000	1,6201273E-002	38	5,6949954E+000	4,673759881930891E+001	9,5332267E-005
2	1	0	1	0	5,398809863614588E+001	3,7478396E-001	3,7392101E-001	2,558592270254485E-001	1,000000000000000E+000	1,6637711E-002	38	5,6949954E+000	4,843719877637341E+001	9,5671137E-005
2	1	0	1	0	5,568769859321037E+001	3,7818319E-001	3,7732410E-001	2,543671181134637E-001	1,000000000000000E+000	1,7071741E-002	38	5,6949954E+000	5,013679873343790E+001	9,5978845E-005
2	1	0	1	0	5,738729855027486E+001	3,8158232E-001	3,8071936E-001	2,525731013404139E-001	1,000000000000000E+000	1,7502801E-002	38	5,6949954E+000	5,183639869050239E+001	9,6159471E-005
2	1	0	1	0	5,908669850734441E+001	3,8498119E-001	3,8411251E-001	2,511530196357779E-001	1,000000000000000E+000	1,7931404E-002	38	5,6949954E+000	5,353579864757194E+001	9,6471013E-005
2	1	0	1	0	6,078629846440890E+001	3,8838032E-001	3,8749567E-001	2,494855166063457E-001	1,000000000000000E+000	1,8357223E-002	38	5,6949954E+000	5,523539860463643E+001	9,6674557E-005
2	1	0	1	0	6,248589842147339E+001	3,9177957E-001	3,9088255E-001	2,482904341591191E-001	1,000000000000000E+000	1,8780870E-002	38	5,6949954E+000	5,693499856170092E+001	9,7052398E-005
2	1	0	1	0	6,418549837853789E+001	3,9517877E-001	3,9430189E-001	2,469965523222881E-001	1,000000000000000E+000	1,9202318E-002	38	5,6949954E+000	5,863459851876542E+001	9,7391210E-005
2	1	0	1	0	6,588489833560743E+001	3,9857754E-001	3,9768231E-001	2,462884115966357E-001	1,000000000000000E+000	1,9621829E-002	38	5,6949954E+000	6,033399847583496E+001	9,7944547E-005
2	1	0	1	0	6,758449829267192E+001	4,0197670E-001	4,0110496E-001	2,456980789269113E-001	1,000000000000000E+000	2,0040553E-002	38	5,6949954E+000	6,203359843289945E+001	9,8550714E-005
2	1	0	1	0	6,928409824973642E+001	4,0537596E-001	4,0451723E-001	2,449732504170141E-001	1,000000000000000E+000	2,0458121E-002	38	5,6949954E+000	6,373319838996395E+001	9,9095902E-005
2	1	0	1	0	7,098369820680091E+001	4,0877512E-001	4,0791383E-001	2,446030353476787E-001	1,000000000000000E+000	2,0874798E-002	38	5,6949954E+000	6,543279834702844E+001	9,9776960E-005
2	1	0	1	0	7,268309816387045E+001	4,1217393E-001	4,1130981E-001	2,441571114673864E-001	1,000000000000000E+000	2,1290436E-002	38	5,6949964E+000	6,713219830409798E+001	1,0042421E-004
2	1	0	1	0	7,438269812093495E+001	4,1557318E-001	4,1472098E-001	2,433899348730601E-001	1,000000000000000E+000	2,1705344E-002	38	5,6949954E+000	6,883179826116248E+001	1,0093892E-004
2	1	0	1	0	7,608229807799944E+001	4,1897231E-001	4,1810673E-001	2,426872818824826E-001	1,000000000000000E+000	2,2118893E-002	38	5,6949954E+000	7,053139821822697E+001	1,0146919E-004
2	1	0	1	0	7,778189803506393E+001	4,2237151E-001	4,2147878E-001	2,427741260596494E-001	1,000000000000000E+000	2,2532020E-002	38	5,6949954E+000	7,223099817529146E+001	1,0232414E-004
2	1	0	1	0	7,948129799213348E+001	4,2577037E-001	4,2488757E-001	2,424569499964511E-001	1,000000000000000E+000	2,2945162E-002	38	5,6949954E+000	7,393039813236101E+001	1,0301694E-004
2	1	0	1	0	8,118089794919797E+001	4,2916954E-001	4,2829707E-001	2,418969014504326E-001	1,000000000000000E+000	2,3357093E-002	38	5,6949954E+000	7,562999808942550E+001	1,0360374E-004
2	1	0	1	0	8,288049790626246E+001	4,3256873E-001	4,3169963E-001	2,415994634627974E-001	1,000000000000000E+000	2,3768526E-002	38	5,6949954E+000	7,732959804648999E+001	1,0429840E-004
2	1	0	1	0	8,458009786332696E+001	4,3596795E-001	4,3510112E-001	2,413019599997410E-001	1,000000000000000E+000	2,4179671E-002	38	5,6949954E+000	7,902919800355448E+001	1,0499075E-004
2	1	0	1	0	8,627959782039397E+001	4,3936694E-001	4,3847382E-001	2,414399310386548E-001	1,000000000000000E+000	2,4590554E-002	38	5,6949959E+000	8,072869796062150E+001	1,0586509E-004
2	1	0	1	0	8,797909777746099E+001	4,4276595E-001	4,4188279E-001	2,411756245087295E-001	1,000000000000000E+000	2,5001507E-002	38	5,6949954E+000	8,242819791768852E+001	1,0657136E-004
2	1	0	1	0	8,967869773452549E+001	4,4616511E-001	4,4527903E-001	2,405913126300829E-001	1,000000000000000E+000	2,5411637E-002	38	5,6949954E+000	8,412779787475301E+001	1,0713027E-004
2	1	0	1	0	9,137829769158998E+001	4,4956428E-001	4,4867298E-001	2,404755755683277E-001	1,000000000000000E+000	2,5821067E-002	38	5,6949954E+000	8,582739783181751E+001	1,0789489E-004
2	1	0	1	0	9,307769764865952E+001	4,5296311E-001	4,5210859E-001	2,407448419938731E-001	1,000000000000000E+000	2,6230827E-002	38	5,6949964E+000	8,752679778888705E+001	1,0884281E-004
2	1	0	1	0	9,477729760572402E+001	4,5636234E-001	4,5549163E-001	2,415659207343182E-001	1,000000000000000E+000	2,6641235E-002	38	5,6949954E+000	8,922639774595154E+001	1,1003126E-004
2	1	0	1	0	9,647689756278851E+001	4,5976150E-001	4,5890146E-001	2,420131215841010E-001	1,000000000000000E+000	2,7053034E-002	38	5,6949954E+000	9,092599770301604E+001	1,1106017E-004
2	1	0	1	0	9,817649751985300E+001	4,6316072E-001	4,6226403E-001	2,425272376534169E-001	1,000000000000000E+000	2,7465854E-002	38	5,6949954E+000	9,262559766008053E+001	1,1211162E-004
2	1	0	1	0	9,987599747692002E+001	4,6655971E-001	4,6567857E-001	2,421342944069798E-001	1,000000000000000E+000	2,7878277E-002	38	5,6949959E+000	9,432509761714755E+001	1,1275675E-004
2	1	0	1	0	1,015754974339870E+002	4,6995872E-001	4,6907890E-001	2,425924068756893E-001	1,000000000000000E+000	2,8290851E-002	38	5,6949954E+000	9,602459757421457E+001	1,1379498E-004
2	1	0	1	0	1,032750973910515E+002	4,7335798E-001	4,7248200E-001	2,429840666779821E-001	1,000000000000000E+000	2,8704518E-002	38	5,6949954E+000	9,772419753127906E+001	1,1480560E-004
2	1	0	1	0	1,049746973481160E+002	4,7675711E-001	4,7590032E-001	2,433500361260243E-001	1,000000000000000E+000	2,9118713E-002	38	5,6949954E+000	9,942379748834355E+001	1,1581036E-004
2	1	0	1	0	1,066742973051805E+002	4,8015630E-001	4,7928157E-001	2,434425719866380E-001	1,000000000000000E+000	2,9533271E-002	38	5,6949954E+000	1,011233974454080E+002	1,1667754E-004
2	1	0	1	0	1,083736972622501E+002	4,8355514E-001	4,8268101E-001	2,436536016554265E-001	1,000000000000000E+000	2,9947879E-002	38	5,6949954E+000	1,028227974024776E+002	1,1760696E-004
2	1	0	1	0	1,100732972193146E+002	4,8695436E-001	4,8607406E-001	2,443202737125408E-001	1,000000000000000E+000	3,0363362E-002	38	5,6949954E+000	1,045223973595421E+002	1,1875775E-004
2	1	0	1	0	1,117728971763790E+002	4,9035349E-001	4,8948014E-001	2,455725281817993E-001	1,000000000000000E+000	3,0780302E-002	38	5,6949954E+000	1,062219973166066E+002	1,2020287E-004
2	1	0	1	0	1,134723971334461E+002	4,9375251E-001	4,9288681E-001	2,462413252483060E-001	1,000000000000000E+000	3,1199399E-002	38	5,6949959E+000	1,079214972736736E+002	1,2136910E-004
2	1	0	1	0	1,151718970905131E+002	4,9715149E-001	4,9628034E-001	2,470837623087139E-001	1,000000000000000E+000	3,1619459E-002	38	5,6949954E+000	1,096209972307406E+002	1,2262282E-004
2	1	0	1	0	1,168714970475776E+002	5,0055069E-001	4,9967355E-001	2,480125467267311E-001	1,000000000000000E+000	3,2041177E-002	38	5,6949964E+000	1,113205971878051E+002	1,2392530E-004
2	1	0	1	0	1,185710970046421E+002	5,0394988E-001	5,0305682E-001	2,493133402490770E-001	1,000000000000000E+000	3,2464951E-002	38	5,6949954E+000	1,130201971448696E+002	1,2541878E-004
2	1	0	1	0	1,202705969617091E+002	5,0734890E-001	5,0646102E-001	2,499384283000868E-001	1,000000000000000E+000	3,2890070E-002	38	5,6949964E+000	1,147196971019366E+002	1,2658407E-004
2	1	0	1	0	1,219700969187761E+002	5,1074791E-001	5,0986362E-001	2,510159068581141E-001	1,000000000000000E+000	3,3316962E-002	38	5,6949954E+000	1,164191970590036E+002	1,2798388E-004
2	1	0	1	0	1,236696968758406E+002	5,1414710E-001	5,1325274E-001	2,518020948829829E-001	1,000000000000000E+000	3,3745140E-002	38	5,6949954E+000	1,181187970160681E+002	1,2923812E-004
2	1	0	1	0	1,253692968329051E+002	5,1754630E-001	5,1665628E-001	2,527137033647078E-001	1,000000000000000E+000	3,4174979E-002	38	5,6949954E+000	1,198183969731326E+002	1,3056613E-004
2	1	0	1	0	1,270688967899696E+002	5,2094543E-001	5,2006948E-001	2,535630400936486E-001	1,000000000000000E+000	3,4606066E-002	38	5,6949954E+000	1,215179969301971E+002	1,3187040E-004
2	1	0	1	0	1,287682967470391E+002	5,2434427E-001	5,2347749E-001	2,553241344408006E-001	1,000000000000000E+000	3,5039559E-002	38	5,6949954E+000	1,232173968872667E+002	1,3365643E-004
2	1	0	1	0	1,304678967041036E+002	5,2774352E-001	5,2686375E-001	2,566153637795350E-001	1,000000000000000E+000	3,5475526E-002	38	5,6949964E+000	1,249169968443312E+002	1,3520134E-004
2	1	0	1	0	1,321674966611681E+002	5,3114265E-001	5,3027254E-001	2,578070191447681E-001	1,000000000000000E+000	3,5913523E-002	38	5,6949954E+000	1,266165968013956E+002	1,3670798E-004
2	1	0	1	0	1,338670966182326E+002	5,3454185E-001	5,3366691E-001	2,591985507340797E-001	1,000000000000000E+000	3,6353435E-002	38	5,6949954E+000	1,283161967584601E+002	1,3832569E-004
2	1	0	1	0	1,355664965753022E+002	5,3794068E-001	5,3708017E-001	2,609542973259260E-001	1,000000000000000E+000	3,6796391E-002	38	5,6949954E+000	1,300155967155297E+002	1,4015338E-004
2	1	0	1	0	1,372660965323666E+002	5,4133987E-001	5,4047316E-001	2,636647874833833E-001	1,000000000000000E+000	3,7243187E-002	38	5,6949954E+000	1,317151966725942E+002	1,4250375E-004
2	1	0	1	0	1,389656964894311E+002	5,4473907E-001	5,4384989E-001	2,659245755654449E-001	1,000000000000000E+000	3,7694301E-002	38	5,6949954E+000	1,334147966296587E+002	1,4462305E-004
2	1	0	1	0	1,406651964464982E+002	5,4813802E-001	5,4726183E-001	2,686930075375882E-001	1,000000000000000E+000	3,8149655E-002	38	5,6949959E+000	1,351142965867257E+002	1,4704543E-004
2	1	0	1	0	1,423646964035652E+002	5,5153704E-001	5,5068207E-001	2,722880315141869E-001	1,000000000000000E+000	3,8610369E-002	38	5,6949954E+000	1,368137965437927E+002	1,4994414E-004
2	1	0	1	0	1,440642963606297E+002	5,5493629E-001	5,5405450E-001	2,759195634472578E-001	1,000000000000000E+000	3,9077111E-002	38	5,6949964E+000	1,385133965008572E+002	1,5287448E-004
2	1	0	1	0	1,457638963176942E+002	5,5833548E-001	5,5745143E-001	2,800698853609349E-001	1,000000000000000E+000	3,9550520E-002	38	5,6949954E+000	1,402129964579217E+002	1,5612536E-004
2	1	0	1	0	1,474634962747587E+002	5,6173468E-001	5,6085277E-001	2,852374934130097E-001	1,000000000000000E+000	4,0031802E-002	38	5,6949954E+000	1,419125964149862E+002	1,5997623E-004
2	1	0	1	0	1,491628962318282E+002	5,6513351E-001	5,6426275E-001	2,915003921200567E-001	1,000000000000000E+000	4,0522706E-002	38	5,6949954E+000	1,436119963720557E+002	1,6448282E-004
2	1	0	1	0	1,508624961888927E+002	5,6853265E-001	5,6765944E-001	2,998151271780776E-001	1,000000000000000E+000	4,1026264E-002	38	5,6949954E+000	1,453115963291202E+002	1,7019288E-004
2	1	0	1	0	1,525620961459572E+002	5,7193184E-001	5,7106459E-001	3,106351561353842E-001	1,000000000000000E+000	4,1545980E-002	38	5,6949954E+000	1,470111962861847E+002	1,7739274E-004
2	1	0	1	0	1,542616961030217E+002	5,7533109E-001	5,7445663E-001	3,219434001226151E-001	1,000000000000000E+000	4,2084634E-002	38	5,6949954E+000	1,487107962432492E+002	1,8494252E-004
2	1	0	1	0	1,559610960600912E+002	5,7872993E-001	5,7785100E-001	3,361980167739373E-001	1,000000000000000E+000	4,2644817E-002	38	5,6949954E+000	1,504101962003188E+002	1,9427236E-004
2	1	0	1	0	1,576606960171557E+002	5,8212906E-001	5,8126086E-001	3,531544203454888E-001	1,000000000000000E+000	4,3231513E-002	38	5,6949954E+000	1,521097961573832E+002	2,0527485E-004
2	1	0	1	0	1,593602959742202E+002	5,8552825E-001	5,8463687E-001	3,747223741896342E-001	1,000000000000000E+000	4,3851212E-002	38	5,6949954E+000	1,538093961144477E+002	2,1907651E-004
2	1	0	1	0	1,610598959312847E+002	5,8892745E-001	5,8804208E-001	4,001799438513034E-001	1,000000000000000E+000	4,4510730E-002	38	5,6949954E+000	1,555089960715122E+002	2,3532264E-004
2	1	0	1	0	1,627592958883542E+002	5,9232628E-001	5,9143794E-001	4,315935474481849E-001	1,000000000000000E+000	4,5218430E-002	38	5,6949954E+000	1,572083960285818E+002	2,5526079E-004
2	1	0	1	0	1,644588958454187E+002	5,9572542E-001	5,9483838E-001	4,694488493693250E-001	1,000000000000000E+000	4,5985412E-002	38	5,6949964E+000	1,589079959856463E+002	2,7924619E-004
2	1	0	1	0	1,661584958024832E+002	5,9912467E-001	5,9823978E-001	5,149388198006051E-001	1,000000000000000E+000	4,6822987E-002	38	5,6949954E+000	1,606075959427108E+002	3,0805689E-004
2	1	0	1	0	1,678580957595477E+002	6,0252386E-001	6,0163212E-001	5,701377269011969E-001	1,000000000000000E+000	4,7746155E-002	38	5,6949954E+000	1,623071958997753E+002	3,4301318E-004
2	1	0	1	0	1,695574957166173E+002	6,0592270E-001	6,0505849E-001	6,370237095252946E-001	1,000000000000000E+000	4,8772901E-002	38	5,6949954E+000	1,640065958568448E+002	3,8543661E-004
2	1	0	1	0	1,712570956736818E+002	6,0932183E-001	6,0845113E-001	7,137135769150600E-001	1,000000000000000E+000	4,9921654E-002	38	5,6949954E+000	1,657061958139093E+002	4,3425983E-004
2	1	0	1	0	1,729566956307463E+002	6,1272109E-001	6,1186492E-001	8,074321083084812E-001	1,000000000000000E+000	5,1215939E-002	38	5,6949954E+000	1,674057957709738E+002	4,9403938E-004
2	1	0	1	0	1,746562955878107E+002	6,1612028E-001	6,1526257E-001	9,170828446518483E-001	1,000000000000000E+000	5,2682940E-002	38	5,6949954E+000	1,691053957280383E+002	5,6424673E-004
2	1	0	1	0	1,763556955448803E+002	6,1951905E-001	6,1867160E-001	1,045003389519014E+000	1,000000000000000E+000	5,4352231E-002	38	5,6949954E+000	1,708047956851078E+002	6,4651389E-004
2	1	0	1	0	1,780552955019448E+002	6,2291831E-001	6,2208080E-001	1,192480448827738E+000	1,000000000000000E+000	5,6255817E-002	38	5,6949954E+000	1,725043956421723E+002	7,4181921E-004
2	1	0	1	0	1,797548954590093E+002	6,2631744E-001	6,2547791E-001	1,362290456008601E+000	1,000000000000000E+000	5,8429383E-002	38	5,6949954E+000	1,742039955992368E+002	8,5208256E-004
2	1	0	1	0	1,814544954160738E+002	6,2971663E-001	6,2890369E-001	1,555735358200862E+000	1,000000000000000E+000	6,0912218E-002	38	5,6949954E+000	1,759035955563013E+002	9,7840768E-004
2	1	0	1	0	1,831539953731408E+002	6,3311559E-001	6,3228589E-001	1,774103529487938E+000	1,000000000000000E+000	6,3745022E-002	38	5,6949959E+000	1,776030955133683E+002	1,1217407E-003
2	1	0	1	0	1,848534953302078E+002	6,3651460E-001	6,3568729E-001	2,018045456653162E+000	1,000000000000000E+000	6,6970639E-002	38	5,6949954E+000	1,793025954704353E+002	1,2828459E-003
2	1	0	1	0	1,865530952872723E+002	6,3991386E-001	6,3908607E-001	2,288284809825864E+000	1,000000000000000E+000	7,0634440E-002	38	5,6949954E+000	1,810021954274998E+002	1,4624109E-003
2	1	0	1	0	1,882526952443368E+002	6,4331299E-001	6,4247835E-001	2,584775887724984E+000	1,000000000000000E+000	7,4780598E-002	38	5,6949954E+000	1,827017953845643E+002	1,6606626E-003
2	1	0	1	0	1,899520952014063E+002	6,4671183E-001	6,4586610E-001	2,906376460372655E+000	1,000000000000000E+000	7,9451919E-002	38	5,6949964E+000	1,844011953416339E+002	1,8771300E-003
2	1	0	1	0	1,916516951584708E+002	6,5011096E-001	6,4927250E-001	3,258090328071972E+000	1,000000000000000E+000	8,4697761E-002	38	5,6949954E+000	1,861007952986984E+002	2,1153884E-003
2	1	0	1	0	1,933512951155353E+002	6,5351021E-001	6,5264958E-001	3,637438545846240E+000	1,000000000000000E+000	9,0564631E-002	38	5,6949954E+000	1,878003952557629E+002	2,3739727E-003
2	1	0	1	0	1,950508950725998E+002	6,5690947E-001	6,5608168E-001	4,048142888099170E+000	1,000000000000000E+000	9,7102694E-002	38	5,6949954E+000	1,894999952128273E+002	2,6559124E-003
2	1	0	1	0	1,967502950296694E+002	6,6030824E-001	6,5947068E-001	4,496455263805153E+000	1,000000000000000E+000	1,0437297E-001	38	5,6949954E+000	1,911993951698969E+002	2,9652803E-003
2	1	0	1	0	1,984498949867339E+002	6,6370744E-001	6,6288298E-001	4,974627885449763E+000	1,000000000000000E+000	1,1242936E-001	38	5,6949954E+000	1,928989951269614E+002	3,2975962E-003
2	1	0	1	0	2,001494949437983E+002	6,6710657E-001	6,6627741E-001	5,498459477607980E+000	1,000000000000000E+000	1,2133134E-001	38	5,6949954E+000	1,945985950840259E+002	3,6634994E-003
2	1	0	1	0	2,018490949008628E+002	6,7050588E-001	6,6966003E-001	6,051236856207964E+000	1,000000000000000E+000	1,3116424E-001	38	5,6949954E+000	1,962981950410904E+002	4,0522716E-003
2	1	0	1	0	2,035485948579299E+002	6,7390490E-001	6,7306554E-001	6,615548669779212E+000	1,000000000000000E+000	1,4193510E-001	38	5,6949964E+000	1,979976949981574E+002	4,4526979E-003
2	1	0	1	0	2,049481948225730E+002	6,7670429E-001	6,7588156E-001	7,109626988195032E+000	1,000000000000000E+000	1,5152967E-001	38	5,6949987E+000	1,993972949628005E+002	4,8052659E-003
2	1	0	1	0	2,055486948074031E+002	6,7610413E-001	6,7527694E-001	6,975696897949476E+000	1,000000000000000E+000	1,5574856E-001	38	5,6949954E+000	1,999977949476306E+002	4,7105271E-003
2	1	0	1	0	2,072481947644701E+002	6,7270517E-001	6,7186230E-001	6,299277494315660E+000	1,000000000000000E+000	1,6700029E-001	38	5,6949959E+000	2,016972949046976E+002	4,2322469E-003
2	1	0	1	0	2,089476947215371E+002	6,6930616E-001	6,6846079E-001	5,661761769716506E+000	1,000000000000000E+000	1,7714985E-001	38	5,6949954E+000	2,033967948617646E+002	3,7846658E-003
2	1	0	1	0	2,106472946786016E+002	6,6590697E-001	6,6508204E-001	5,045231621541660E+000	1,000000000000000E+000	1,8622060E-001	38	5,6949954E+000	2,050963948188291E+002	3,3554928E-003
2	1	0	1	0	2,123468946356661E+002	6,6250777E-001	6,6168410E-001	4,522048133695222E+000	1,000000000000000E+000	1,9434389E-001	38	5,6949954E+000	2,067959947758936E+002	2,9921674E-003
2	1	0	1	0	2,140463945927331E+002	6,5910870E-001	6,5829349E-001	4,017388741743837E+000	1,000000000000000E+000	2,0158048E-001	38	5,6949959E+000	2,084954947329607E+002	2,6446208E-003
2	1	0	1	0	2,157458945498001E+002	6,5570980E-001	6,5487170E-001	3,559187765170741E+000	1,000000000000000E+000	2,0800011E-001	38	5,6949954E+000	2,101949946900277E+002	2,3308115E-003
2	1	0	1	0	2,174454945068646E+002	6,5231049E-001	6,5145159E-001	3,155537965123074E+000	1,000000000000000E+000	2,1369025E-001	38	5,6949964E+000	2,118945946470922E+002	2,0556801E-003
2	1	0	1	0	2,191450944639291E+002	6,4891136E-001	6,4806420E-001	2,790509410190229E+000	1,000000000000000E+000	2,1872886E-001	38	5,6949954E+000	2,135941946041567E+002	1,8084293E-003
2	1	0	1	0	2,208446944209936E+002	6,4551216E-001	6,4466715E-001	2,481969820064814E+000	1,000000000000000E+000	2,2319914E-001	38	5,6949954E+000	2,152937945612211E+002	1,6000444E-003
2	1	0	1	0	2,225440943780632E+002	6,4211333E-001	6,4128679E-001	2,191822550916628E+000	1,000000000000000E+000	2,2716284E-001	38	5,6949954E+000	2,169931945182907E+002	1,4055868E-003
2	1	0	1	0	2,242436943351277E+002	6,3871419E-001	6,3789052E-001	1,925413321681120E+000	1,000000000000000E+000	2,3065241E-001	38	5,6949954E+000	2,186927944753552E+002	1,2282029E-003
2	1	0	1	0	2,259432942921921E+002	6,3531500E-001	6,3448513E-001	1,690337261959730E+000	1,000000000000000E+000	2,3371473E-001	38	5,6949954E+000	2,203923944324197E+002	1,0724938E-003
2	1	0	1	0	2,276428942492566E+002	6,3191575E-001	6,3106924E-001	1,481011505266145E+000	1,000000000000000E+000	2,3640127E-001	38	5,6949954E+000	2,220919943894842E+002	9,3462080E-004
2	1	0	1	0	2,293422942063262E+002	6,2851691E-001	6,2766445E-001	1,293966557258912E+000	1,000000000000000E+000	2,3875098E-001	38	5,6949954E+000	2,237913943465537E+002	8,1217679E-004
2	1	0	1	0	2,310418941633907E+002	6,2511778E-001	6,2425864E-001	1,131025687140987E+000	1,000000000000000E+000	2,4080408E-001	38	5,6949954E+000	2,254909943036182E+002	7,0605258E-004
2	1	0	1	0	2,327414941204552E+002	6,2171865E-001	6,2086511E-001	9,855897093887123E-001	1,000000000000000E+000	2,4259621E-001	38	5,6949954E+000	2,271905942606827E+002	6,1191828E-004
2	1	0	1	0	2,344410940775197E+002	6,1831939E-001	6,1746693E-001	8,574513605626226E-001	1,000000000000000E+000	2,4415734E-001	38	5,6949954E+000	2,288901942177472E+002	5,2944786E-004
2	1	0	1	0	2,361404940345892E+002	6,1492062E-001	6,1405933E-001	7,453709376629423E-001	1,000000000000000E+000	2,4551372E-001	38	5,6949954E+000	2,305895941748167E+002	4,5770197E-004
2	1	0	1	0	2,378400939916537E+002	6,1152142E-001	6,1068672E-001	6,507064056026404E-001	1,000000000000000E+000	2,4669479E-001	38	5,6949954E+000	2,322891941318812E+002	3,9737776E-004
2	1	0	1	0	2,395396939487182E+002	6,0812223E-001	6,0729790E-001	5,668664038637283E-001	1,000000000000000E+000	2,4772596E-001	38	5,6949954E+000	2,339887940889457E+002	3,4425678E-004
2	1	0	1	0	2,412392939057827E+002	6,0472298E-001	6,0388380E-001	4,935415580681219E-001	1,000000000000000E+000	2,4862333E-001	38	5,6949954E+000	2,356883940460102E+002	2,9804176E-004
2	1	0	1	0	2,429386938628522E+002	6,0132420E-001	6,0047781E-001	4,308858573649275E-001	1,000000000000000E+000	2,4940504E-001	38	5,6949954E+000	2,373877940030798E+002	2,5873739E-004
2	1	0	1	0	2,446382938199167E+002	5,9792501E-001	5,9708345E-001	3,777212001591908E-001	1,000000000000000E+000	2,5008926E-001	38	5,6949954E+000	2,390873939601443E+002	2,2553108E-004
2	1	0	1	0	2,463378937769812E+002	5,9452587E-001	5,9368324E-001	3,318003979143822E-001	1,000000000000000E+000	2,5068954E-001	38	5,6949954E+000	2,407869939172087E+002	1,9698434E-004
2	1	0	1	0	2,480374937340457E+002	5,9112662E-001	5,9028870E-001	2,929154948402711E-001	1,000000000000000E+000	2,5121796E-001	38	5,6949954E+000	2,424865938742732E+002	1,7290471E-004
2	1	0	1	0	2,497368936911153E+002	5,8772779E-001	5,8688831E-001	2,601001785189436E-001	1,000000000000000E+000	2,5168568E-001	38	5,6949954E+000	2,441859938313428E+002	1,5264975E-004
2	1	0	1	0	2,514364936481797E+002	5,8432859E-001	5,8348405E-001	2,320706419727543E-001	1,000000000000000E+000	2,5210190E-001	38	5,6949954E+000	2,458855937884073E+002	1,3540951E-004
2	1	0	1	0	2,531360936052442E+002	5,8092946E-001	5,8008939E-001	2,086378844359889E-001	1,000000000000000E+000	2,5247458E-001	38	5,6949954E+000	2,475851937454718E+002	1,2102862E-004
2	1	0	1	0	2,548356935623087E+002	5,7753026E-001	5,7669699E-001	1,892263291305920E-001	1,000000000000000E+000	2,5281093E-001	38	5,6949954E+000	2,492847937025363E+002	1,0912625E-004
2	1	0	1	0	2,565350935193783E+002	5,7413143E-001	5,7327789E-001	1,729054670966930E-001	1,000000000000000E+000	2,5311714E-001	38	5,6949964E+000	2,509841936596058E+002	9,9122881E-005
2	1	0	1	0	2,582346934764428E+002	5,7073224E-001	5,6988990E-001	1,586571466464537E-001	1,000000000000000E+000	2,5339743E-001	38	5,6949954E+000	2,526837936166703E+002	9,0417103E-005
2	1	0	1	0	2,599342934335073E+002	5,6733298E-001	5,6649041E-001	1,461717643553248E-001	1,000000000000000E+000	2,5365520E-001	38	5,6949954E+000	2,543833935737348E+002	8,2804901E-005
2	1	0	1	0	2,616338933905718E+002	5,6393385E-001	5,6308079E-001	1,359464867185260E-001	1,000000000000000E+000	2,5389388E-001	38	5,6949954E+000	2,560829935307993E+002	7,6548851E-005
2	1	0	1	0	2,633332933476413E+002	5,6053507E-001	5,5969507E-001	1,269112047060714E-001	1,000000000000000E+000	2,5411612E-001	38	5,6949964E+000	2,577823934878688E+002	7,1031573E-005
2	1	0	1	0	2,650328933047058E+002	5,5713582E-001	5,5628586E-001	1,189817397087496E-001	1,000000000000000E+000	2,5432396E-001	38	5,6949954E+000	2,594819934449333E+002	6,6187858E-005
2	1	0	1	0	2,667324932617703E+002	5,5373663E-001	5,5287439E-001	1,121441952111384E-001	1,000000000000000E+000	2,5451940E-001	38	5,6949954E+000	2,611815934019978E+002	6,2001651E-005
2	1	0	1	0	2,684320932188348E+002	5,5033743E-001	5,4947168E-001	1,065409042206252E-001	1,000000000000000E+000	2,5470409E-001	38	5,6949954E+000	2,628811933590623E+002	5,8541209E-005
2	1	0	1	0	2,701314931759043E+002	5,4693860E-001	5,4605365E-001	1,010121780017425E-001	1,000000000000000E+000	2,5487944E-001	38	5,6949954E+000	2,645805933161319E+002	5,5158067E-005
2	1	0	1	0	2,718310931329688E+002	5,4353940E-001	5,4266149E-001	9,650546966366330E-002	1,000000000000000E+000	2,5504649E-001	38	5,6949954E+000	2,662801932731963E+002	5,2369800E-005
2	1	0	1	0	2,735306930900333E+002	5,4014021E-001	5,3927517E-001	9,211231653527574E-002	1,000000000000000E+000	2,5520572E-001	38	5,6949954E+000	2,679797932302608E+002	4,9673887E-005
2	1	0	1	0	2,752302930470978E+002	5,3674102E-001	5,3588617E-001	8,838128852673188E-002	1,000000000000000E+000	2,5535831E-001	38	5,6949954E+000	2,696793931873253E+002	4,7362311E-005
2	1	0	1	0	2,769297930041648E+002	5,3334206E-001	5,3247035E-001	8,450960875096403E-002	1,000000000000000E+000	2,5550404E-001	38	5,6949964E+000	2,713788931443924E+002	4,4998862E-005
2	1	0	1	0	2,786292929612318E+002	5,2994299E-001	5,2907008E-001	8,193801794940558E-002	1,000000000000000E+000	2,5564447E-001	38	5,6949954E+000	2,730783931014594E+002	4,3350952E-005
2	1	0	1	0	2,803288929182963E+002	5,2654386E-001	5,2565062E-001	7,917321803383715E-002	1,000000000000000E+000	2,5578052E-001	38	5,6949954E+000	2,747779930585239E+002	4,1617452E-005
2	1	0	1	0	2,820284928753608E+002	5,2314466E-001	5,2227485E-001	7,657763988533106E-002	1,000000000000000E+000	2,5591207E-001	38	5,6949954E+000	2,764775930155884E+002	3,9994575E-005
2	1	0	1	0	2,837279928324278E+002	5,1974559E-001	5,1885957E-001	7,371160512868002E-002	1,000000000000000E+000	2,5603890E-001	38	5,6949959E+000	2,781770929726554E+002	3,8245973E-005
2	1	0	1	0	2,854274927894949E+002	5,1634663E-001	5,1546562E-001	7,128722849847147E-002	1,000000000000000E+000	2,5616124E-001	38	5,6949964E+000	2,798765929297224E+002	3,6746114E-005
2	1	0	1	0	2,871270927465594E+002	5,1294744E-001	5,1206654E-001	6,905984142184673E-002	1,000000000000000E+000	2,5627944E-001	38	5,6949954E+000	2,815761928867869E+002	3,5363235E-005
2	1	0	1	0	2,888266927036238E+002	5,0954819E-001	5,0866866E-001	6,628965472096859E-002	1,000000000000000E+000	2,5639340E-001	38	5,6949954E+000	2,832757928438514E+002	3,3719469E-005
2	1	0	1	0	2,905261926606909E+002	5,0614917E-001	5,0526148E-001	6,371588314428522E-002	1,000000000000000E+000	2,5650290E-001	38	5,6949959E+000	2,849752928009184E+002	3,2193180E-005
2	1	0	1	0	2,922256926177579E+002	5,0275022E-001	5,0185913E-001	6,208634196229446E-002	1,000000000000000E+000	2,5660866E-001	38	5,6949954E+000	2,866747927579854E+002	3,1158597E-005
2	1	0	1	0	2,939252925748224E+002	4,9935105E-001	4,9847671E-001	6,013887352937777E-002	1,000000000000000E+000	2,5671166E-001	38	5,6949954E+000	2,883743927150499E+002	2,9977828E-005
2	1	0	1	0	2,956248925318869E+002	4,9595183E-001	4,9507600E-001	5,809424396139512E-002	1,000000000000000E+000	2,5681129E-001	38	5,6949954E+000	2,900739926721144E+002	2,8761066E-005
2	1	0	1	0	2,973243924889539E+002	4,9255282E-001	4,9168766E-001	5,611279331631480E-002	1,000000000000000E+000	2,5690728E-001	38	5,6949959E+000	2,917734926291814E+002	2,7589967E-005
2	1	0	1	0	2,990238924460209E+002	4,8915383E-001	4,8829383E-001	5,372790413817485E-002	1,000000000000000E+000	2,5699973E-001	38	5,6949954E+000	2,934729925862484E+002	2,6235004E-005
2	1	0	1	0	3,007234924030854E+002	4,8575467E-001	4,8488054E-001	5,149227415263660E-002	1,000000000000000E+000	2,5708821E-001	38	5,6949954E+000	2,951725925433129E+002	2,4967601E-005
2	1	0	1	0	3,024230923601499E+002	4,8235545E-001	4,8146552E-001	4,921470867675071E-002	1,000000000000000E+000	2,5717297E-001	38	5,6949954E+000	2,968721925003774E+002	2,3695186E-005
2	1	0	1	0	3,041224923172194E+002	4,7895661E-001	4,7807041E-001	4,789746367186720E-002	1,000000000000000E+000	2,5725475E-001	38	5,6949964E+000	2,985715924574470E+002	2,2898361E-005
2	1	0	1	0	3,058220922742839E+002	4,7555745E-001	4,7466427E-001	4,640888232279039E-002	1,000000000000000E+000	2,5733376E-001	38	5,6949954E+000	3,002711924145115E+002	2,2028638E-005
2	1	0	1	0	3,075216922313484E+002	4,7215828E-001	4,7127688E-001	4,420711985933812E-002	1,000000000000000E+000	2,5740972E-001	38	5,6949954E+000	3,019707923715760E+002	2,0833793E-005
2	1	0	1	0	3,092212921884129E+002	4,6875906E-001	4,6786627E-001	4,252314814283886E-002	1,000000000000000E+000	2,5748259E-001	38	5,6949954E+000	3,036703923286404E+002	1,9895147E-005
2	1	0	1	0	3,109207921454799E+002	4,6536005E-001	4,6447659E-001	4,051558979008679E-002	1,000000000000000E+000	2,5755215E-001	38	5,6949959E+000	3,053698922857075E+002	1,8818542E-005
2	1	0	1	0	3,126202921025470E+002	4,6196106E-001	4,6107429E-001	3,881788960609672E-002	1,000000000000000E+000	2,5761834E-001	38	5,6949954E+000	3,070693922427745E+002	1,7897932E-005
2	1	0	1	0	3,143198920596114E+002	4,5856184E-001	4,5768651E-001	3,689175785136284E-002	1,000000000000000E+000	2,5768149E-001	38	5,6949954E+000	3,087689921998390E+002	1,6884860E-005
2	1	0	1	0	3,160194920166759E+002	4,5516267E-001	4,5430005E-001	3,518205086222920E-002	1,000000000000000E+000	2,5774160E-001	38	5,6949954E+000	3,104685921569035E+002	1,5983207E-005
2	1	0	1	0	3,177190919737404E+002	4,5176348E-001	4,5088157E-001	3,348804607665051E-002	1,000000000000000E+000	2,5779870E-001	38	5,6949954E+000	3,121681921139680E+002	1,5099143E-005
2	1	0	1	0	3,194184919308100E+002	4,4836465E-001	4,4749668E-001	3,163500151437473E-002	1,000000000000000E+000	2,5785300E-001	38	5,6949954E+000	3,138675920710375E+002	1,4156558E-005
2	1	0	1	0	3,211180918878745E+002	4,4496545E-001	4,4410321E-001	2,996471975913062E-002	1,000000000000000E+000	2,5790429E-001	38	5,6949954E+000	3,155671920281020E+002	1,3307428E-005
2	1	0	1	0	3,228176918449390E+002	4,4156626E-001	4,4068065E-001	2,881066589278980E-002	1,000000000000000E+000	2,5795329E-001	38	5,6949954E+000	3,172667919851665E+002	1,2696303E-005
2	1	0	1	0	3,245172918020035E+002	4,3816707E-001	4,3727615E-001	2,716026424515428E-002	1,000000000000000E+000	2,5799996E-001	38	5,6949954E+000	3,189663919422310E+002	1,1876536E-005
2	1	0	1	0	3,262166917590730E+002	4,3476823E-001	4,3389079E-001	2,630505497398336E-002	1,000000000000000E+000	2,5804445E-001	38	5,6949954E+000	3,206657918993005E+002	1,1413521E-005
2	1	0	1	0	3,279162917161375E+002	4,3136907E-001	4,3048108E-001	2,428592795822104E-002	1,000000000000000E+000	2,5808659E-001	38	5,6949954E+000	3,223653918563650E+002	1,0454633E-005
2	1	0	1	0	3,296158916732020E+002	4,2796987E-001	4,2707133E-001	2,269910055864593E-002	1,000000000000000E+000	2,5812560E-001	38	5,6949954E+000	3,240649918134295E+002	9,6941349E-006
2	1	0	1	0	3,313154916302665E+002	4,2457068E-001	4,2367950E-001	2,154176250831213E-002	1,000000000000000E+000	2,5816208E-001	38	5,6949954E+000	3,257645917704940E+002	9,1268030E-006
2	1	0	1	0	3,330148915873360E+002	4,2117184E-001	4,2029899E-001	2,018223972288830E-002	1,000000000000000E+000	2,5819656E-001	38	5,6949954E+000	3,274639917275636E+002	8,4825751E-006
2	1	0	1	0	3,347144915444005E+002	4,1777265E-001	4,1688946E-001	1,901996829696978E-002	1,000000000000000E+000	2,5822920E-001	38	5,6949954E+000	3,291635916846280E+002	7,9292240E-006
2	1	0	1	0	3,364140915014650E+002	4,1437349E-001	4,1349360E-001	1,770192748559831E-002	1,000000000000000E+000	2,5825956E-001	38	5,6949954E+000	3,308631916416925E+002	7,3196338E-006
2	1	0	1	0	3,381136914585295E+002	4,1097429E-001	4,1008151E-001	1,564696017474110E-002	1,000000000000000E+000	2,5828698E-001	38	5,6949954E+000	3,325627915987570E+002	6,4165288E-006
2	1	0	1	0	3,398130914155990E+002	4,0757552E-001	4,0669560E-001	1,447527920041330E-002	1,000000000000000E+000	2,5831184E-001	38	5,6949954E+000	3,342621915558266E+002	5,8870323E-006
2	1	0	1	0	3,415126913726635E+002	4,0417627E-001	4,0329209E-001	1,277647400761400E-002	1,000000000000000E+000	2,5833410E-001	38	5,6949954E+000	3,359617915128911E+002	5,1526508E-006
2	1	0	1	0	3,432122913297280E+002	4,0077704E-001	3,9988253E-001	1,172695678634847E-002	1,000000000000000E+000	2,5835386E-001	38	5,6949954E+000	3,376613914699556E+002	4,6894052E-006
2	1	0	1	0	3,449118912867925E+002	3,9737791E-001	3,9647409E-001	1,037222325504099E-002	1,000000000000000E+000	2,5837183E-001	38	5,6949954E+000	3,393609914270201E+002	4,1123176E-006
2	1	0	1	0	3,466112912438621E+002	3,9397907E-001	3,9308164E-001	9,662227032169846E-003	1,000000000000000E+000	2,5838804E-001	38	5,6949954E+000	3,410603913840896E+002	3,7980440E-006
2	1	0	1	0	3,483108912009266E+002	3,9057988E-001	3,8965797E-001	8,797793502070939E-003	1,000000000000000E+000	2,5840303E-001	38	5,6949954E+000	3,427599913411541E+002	3,4281304E-006
2	1	0	1	0	3,500104911579911E+002	3,8718066E-001	3,8627735E-001	8,027480791113123E-003	1,000000000000000E+000	2,5841683E-001	38	5,6949954E+000	3,444595912982186E+002	3,1008340E-006
2	1	0	1	0	3,517100911150555E+002	3,8378149E-001	3,8288078E-001	6,786109209530322E-003	1,000000000000000E+000	2,5842857E-001	38	5,6949954E+000	3,461591912552831E+002	2,5982708E-006
2	1	0	1	0	3,534094910721251E+002	3,8038269E-001	3,7948877E-001	5,806480295442118E-003	1,000000000000000E+000	2,5843865E-001	38	5,6949954E+000	3,478585912123526E+002	2,2034940E-006
2	1	0	1	0	3,551090910291896E+002	3,7698349E-001	3,7612140E-001	4,276632910961767E-003	1,000000000000000E+000	2,5844657E-001	38	5,6949954E+000	3,495581911694171E+002	1,6085331E-006
2	1	0	1	0	3,568086909862541E+002	3,7358427E-001	3,7271073E-001	2,467340383359176E-003	1,000000000000000E+000	2,5845122E-001	38	5,6949954E+000	3,512577911264816E+002	9,1960425E-007
2	1	0	1	0	3,585082909433186E+002	3,7018511E-001	3,6930147E-001	1,551553441323392E-003	1,000000000000000E+000	2,5845399E-001	38	5,6949954E+000	3,529573910835461E+002	5,7299098E-007
2	1	0	1	0	3,602076909003881E+002	3,6678627E-001	3,6588949E-001	5,815476582004802E-004	1,000000000000000E+000	2,5845525E-001	38	5,6949954E+000	3,546567910406156E+002	2,1278217E-007
2	0	0	1	0	3,619072908574526E+002	3,6338711E-001	3,6247754E-001	-3,650177601086553E-004	1,000000000000000E+000	2,5845474E-001	38	5,6949954E+000	8,497999785322463E-001	-1,3231075E-007
2	0	0	1	0	3,636068908145171E+002	3,5998788E-001	3,5909227E-001	-1,789689469265294E-003	1,000000000000000E+000	2,5845236E-001	38	5,6949954E+000	2,549399935596739E+000	-6,4266362E-007
2	0	0	1	0	3,653064907715816E+002	3,5658872E-001	3,5568497E-001	-3,497218718674298E-003	1,000000000000000E+000	2,5844708E-001	38	5,6949954E+000	4,248999892661232E+000	-1,2439082E-006
2	1	0	1	0	3,670058907286511E+002	3,5318992E-001	3,5228047E-001	-4,511649324559414E-003	1,000000000000000E+000	2,5843972E-001	38	5,6949954E+000	5,948399849730777E+000	-1,5893660E-006
2	0	0	1	0	3,687054906857156E+002	3,4979066E-001	3,4891057E-001	-5,753844146643303E-003	1,000000000000000E+000	2,5843045E-001	38	5,6949954E+000	7,647999806795269E+000	-2,0075770E-006
2	0	0	1	0	3,704050906427801E+002	3,4639150E-001	3,4549814E-001	-6,989549752330237E-003	1,000000000000000E+000	2,5841916E-001	38	5,6949954E+000	9,347599763859762E+000	-2,4148765E-006
2	0	0	1	0	3,721046905998446E+002	3,4299234E-001	3,4211370E-001	-8,192047341949504E-003	1,000000000000000E+000	2,5840539E-001	38	5,6949954E+000	1,104719972092425E+001	-2,8026116E-006
2	0	0	1	0	3,738040905569142E+002	3,3959350E-001	3,3869839E-001	-9,510163319967943E-003	1,000000000000000E+000	2,5838941E-001	38	5,6949954E+000	1,274659967799380E+001	-3,2210769E-006
2	0	0	1	0	3,755036905139787E+002	3,3619434E-001	3,3532342E-001	-1,038088990978817E-002	1,000000000000000E+000	2,5837207E-001	38	5,6949954E+000	1,444619963505829E+001	-3,4809555E-006
2	0	0	1	0	3,772032904710431E+002	3,3279508E-001	3,3191708E-001	-1,190408207486685E-002	1,000000000000000E+000	2,5835255E-001	38	5,6949954E+000	1,614579959212278E+001	-3,9511683E-006
2	0	0	1	0	3,789028904281076E+002	3,2939595E-001	3,2852173E-001	-1,223284801867569E-002	1,000000000000000E+000	2,5833163E-001	38	5,6949954E+000	1,784539954918728E+001	-4,0187565E-006
2	0	0	1	0	3,806022903851772E+002	3,2599714E-001	3,2512397E-001	-1,343952638686807E-002	1,000000000000000E+000	2,5830922E-001	38	5,6949964E+000	1,954479950625682E+001	-4,3695122E-006
2	0	0	1	0	3,823018903422417E+002	3,2259789E-001	3,2171828E-001	-1,397435901431524E-002	1,000000000000000E+000	2,5828537E-001	38	5,6949954E+000	2,124439946332132E+001	-4,4958065E-006
2	0	0	1	0	3,840014902993062E+002	3,1919873E-001	3,1829783E-001	-1,454846051082476E-002	1,000000000000000E+000	2,5826040E-001	38	5,6949954E+000	2,294399942038581E+001	-4,6307437E-006
2	0	0	1	0	3,857010902563707E+002	3,1579953E-001	3,1489524E-001	-1,537222581973270E-002	1,000000000000000E+000	2,5823471E-001	38	5,6949954E+000	2,464359937745030E+001	-4,8406409E-006
2	0	0	1	0	3,874004902134402E+002	3,1240070E-001	3,1147835E-001	-1,628409483068841E-002	1,000000000000000E+000	2,5820708E-001	38	5,6949954E+000	2,634299933451985E+001	-5,0721428E-006
2	0	0	1	0	3,891000901705047E+002	3,0900151E-001	3,0812010E-001	-1,755480072131776E-002	1,000000000000000E+000	2,5817788E-001	38	5,6949954E+000	2,804259929158434E+001	-5,4089869E-006
2	0	0	1	0	3,907996901275692E+002	3,0560231E-001	3,0471265E-001	-1,896416777736434E-002	1,000000000000000E+000	2,5814626E-001	38	5,6949954E+000	2,974219924864883E+001	-5,7786219E-006
2	0	0	1	0	3,924992900846337E+002	3,0220312E-001	3,0131990E-001	-2,000606533626392E-002	1,000000000000000E+000	2,5811264E-001	38	5,6949954E+000	3,144179920571332E+001	-6,0282255E-006
2	0	0	1	0	3,941987900417007E+002	2,9880413E-001	2,9791906E-001	-2,075858636271632E-002	1,000000000000000E+000	2,5807741E-001	38	5,6949959E+000	3,314129916278034E+001	-6,1843784E-006
2	0	0	1	0	3,958982899987677E+002	2,9540512E-001	2,9450384E-001	-2,121431940528466E-002	1,000000000000000E+000	2,5804114E-001	38	5,6949954E+000	3,484079911984736E+001	-6,2476984E-006
2	0	0	1	0	3,975978899558322E+002	2,9200593E-001	2,9112899E-001	-2,166468019402101E-002	1,000000000000000E+000	2,5800428E-001	38	5,6949954E+000	3,654039907691185E+001	-6,3072166E-006
2	0	0	1	0	3,992974899128967E+002	2,8860673E-001	2,8770587E-001	-2,311211272367772E-002	1,000000000000000E+000	2,5796562E-001	38	5,6949954E+000	3,823999903397635E+001	-6,6494904E-006
2	0	0	1	0	4,009968898699663E+002	2,8520790E-001	2,8430787E-001	-2,352894568549230E-002	1,000000000000000E+000	2,5792521E-001	38	5,6949964E+000	3,993939899104589E+001	-6,6894645E-006
2	0	0	1	0	4,026964898270307E+002	2,8180873E-001	2,8091764E-001	-2,429494589177034E-002	1,000000000000000E+000	2,5788406E-001	38	5,6949954E+000	4,163899894811038E+001	-6,8248792E-006
2	0	0	1	0	4,043960897840952E+002	2,7840954E-001	2,7751070E-001	-2,542569053568272E-002	1,000000000000000E+000	2,5784117E-001	38	5,6949954E+000	4,333859890517488E+001	-7,0559013E-006
2	0	0	1	1	4,050761897669145E+002	2,7701002E-001	2,7606478E-001	-2,585435233416811E-002	1,000000000000000E+000	2,5782356E-001	38	5,6949992E+000	4,401869888799411E+001	-7,1374761E-006