File: ECSA/ECSA header/4 CV for ECSA_02_CV_C01.txt
EC-Lab ASCII FILE
Nb header lines : 61

Cyclic Voltammetry

Run on channel : 1 (SN 1153)
User :
Electrode connection : standard
Potential control : Ewe
Ewe ctrl range : min = -2,50 V, max = 2,50 V
Ewe,I filtering : 50 kHz
Safety Limits :
	Do not start on E overload
Channel : Grounded
Acquisition started on : 12/20/2024 11:49:19.340
Technique started on : 12/20/2024 11:49:20.042
Loaded Setting File :  C:\Users\lab10\Desktop\Andraž Stariha\T20-6_ED-PP-Fe-1-1.5V-50-10-60m\6 CV for ECSA.mps
Saved on :
	File : 4 CV for ECSA_02_CV_C01.mpr
	Directory : C:\Users\lab10\Desktop\Andraž Stariha\IMT16-Fe-3_ED-PP-Co-1-1.5V-50-10-60m\
	Host : 178.172.20.122
Device : SP-200 (SN 0067)
Address : USB
EC-Lab for windows v11.52 (software)
Internet server v11.52 (firmware)
Command interpretor v11.52 (firmware)
Electrode material :
Initial state :
Electrolyte :
Comments :
Cable : standard
Reference electrode : SCE Saturated Calomel Electrode (0,241 V)
Electrode surface area : 0,001 cm²
Characteristic mass : 0,001 g
Equivalent Weight : 0,000 g/eq.
Density : 0,000 g/cm3
Volume (V) : 0,001 cm³
Cycle Definition : Charge/Discharge alternance
Ei (V)              -0,150
vs.                 Ref
dE/dt               500,000
dE/dt unit          mV/s
E1 (V)              0,050
vs.                 Ei
Step percent        85
N                   17
E range min (V)     -2,500
E range max (V)     2,500
I Range             10 mA
I Range min         Unset
I Range max         Unset
I Range init        Unset
Bandwidth           8
E2 (V)              -0,050
vs.                 Ei
nc cycles           2
Reverse Scan        1
Ef (V)              0,000
vs.                 Ei

Ewe/V	<I>/mA	time/s	cycle number
-1,4989740E-001	-8,009178936481476E-002	7,021999822609359E-001	1,000000000000000E+000
-1,4901052E-001	-2,378143435424818E-002	7,039999822154641E-001	1,000000000000000E+000
-1,4731838E-001	6,246067815674813E-003	7,073999821295729E-001	1,000000000000000E+000
-1,4561284E-001	2,109827535059600E-002	7,107999820436817E-001	1,000000000000000E+000
-1,4391136E-001	3,200197605224273E-002	7,141999819577904E-001	1,000000000000000E+000
-1,4221859E-001	4,036513702976659E-002	7,175999818718992E-001	1,000000000000000E+000
-1,4052224E-001	4,843144324559057E-002	7,209999817860080E-001	1,000000000000000E+000
-1,3881052E-001	5,513985395464271E-002	7,243999817001168E-001	1,000000000000000E+000
-1,3709769E-001	6,174574049737196E-002	7,277999816142255E-001	1,000000000000000E+000
-1,3540600E-001	6,746582756431979E-002	7,311999815283343E-001	1,000000000000000E+000
-1,3369435E-001	7,306432076893543E-002	7,345999814424431E-001	1,000000000000000E+000
-1,3199683E-001	7,819189257634218E-002	7,379999813565519E-001	1,000000000000000E+000
-1,3029835E-001	8,342677088421646E-002	7,413999812706606E-001	1,000000000000000E+000
-1,2862100E-001	8,856746334549803E-002	7,447999811847694E-001	1,000000000000000E+000
-1,2691282E-001	9,313471252426098E-002	7,481999810988782E-001	1,000000000000000E+000
-1,2522879E-001	9,787601871448770E-002	7,515999810129870E-001	1,000000000000000E+000
-1,2352648E-001	1,026578647952192E-001	7,549999809270957E-001	1,000000000000000E+000
-1,2182882E-001	1,072871096448584E-001	7,583999808412045E-001	1,000000000000000E+000
-1,2014178E-001	1,115885039262141E-001	7,617999807553133E-001	1,000000000000000E+000
-1,1843470E-001	1,162880893443805E-001	7,651999806694221E-001	1,000000000000000E+000
-1,1673466E-001	1,205584892104530E-001	7,685999805835309E-001	1,000000000000000E+000
-1,1503735E-001	1,249004187930041E-001	7,719999804976396E-001	1,000000000000000E+000
-1,1333827E-001	1,292125288237006E-001	7,753999804117484E-001	1,000000000000000E+000
-1,1162867E-001	1,338358209950457E-001	7,787999803258572E-001	1,000000000000000E+000
-1,0992659E-001	1,378594332663853E-001	7,821999802399660E-001	1,000000000000000E+000
-1,0821424E-001	1,423277380972652E-001	7,855999801540747E-001	1,000000000000000E+000
-1,0652448E-001	1,466482099049244E-001	7,889999800681835E-001	1,000000000000000E+000
-1,0482813E-001	1,508339611909835E-001	7,923999799822923E-001	1,000000000000000E+000
-1,0313036E-001	1,551639648314449E-001	7,957999798964011E-001	1,000000000000000E+000
-1,0142553E-001	1,594689334197029E-001	7,991999798105098E-001	1,000000000000000E+000
-1,0027918E-001	1,624687193077987E-001	8,014999797524069E-001	1,000000000000000E+000
-9,9914156E-002	1,635331064462662E-001	8,021999797347235E-001	1,000000000000000E+000
-9,9849179E-002	1,642579436302185E-001	8,023999797296710E-001	1,000000000000000E+000
-9,9898867E-002	1,453737765550613E-001	8,025999797246186E-001	1,000000000000000E+000
-1,0081498E-001	1,053092779511646E-001	8,043999796791468E-001	1,000000000000000E+000
-1,0250594E-001	6,787355850883625E-002	8,077999795932556E-001	1,000000000000000E+000
-1,0421591E-001	4,366152236912069E-002	8,111999795073643E-001	1,000000000000000E+000
-1,0591380E-001	2,540920721889967E-002	8,145999794214731E-001	1,000000000000000E+000
-1,0760847E-001	1,007058875967462E-002	8,179999793355819E-001	1,000000000000000E+000
-1,0931640E-001	-3,055339892256372E-003	8,213999792496907E-001	1,000000000000000E+000
-1,1102576E-001	-1,454440336493690E-002	8,247999791637994E-001	1,000000000000000E+000
-1,1272437E-001	-2,479240668912996E-002	8,281999790779082E-001	1,000000000000000E+000
-1,1441891E-001	-3,381603682646517E-002	8,315999789920170E-001	1,000000000000000E+000
-1,1613175E-001	-4,218396426995219E-002	8,349999789061258E-001	1,000000000000000E+000
-1,1782630E-001	-4,994269235794491E-002	8,383999788202345E-001	1,000000000000000E+000
-1,1953087E-001	-5,688596157324331E-002	8,417999787343433E-001	1,000000000000000E+000
-1,2123498E-001	-6,364325494905626E-002	8,451999786484521E-001	1,000000000000000E+000
-1,2292177E-001	-6,974008105180451E-002	8,485999785625609E-001	1,000000000000000E+000
-1,2462767E-001	-7,551501155830920E-002	8,519999784766696E-001	1,000000000000000E+000
-1,2631625E-001	-8,090129126958345E-002	8,553999783907784E-001	1,000000000000000E+000
-1,2800603E-001	-8,595376163884794E-002	8,587999783048872E-001	1,000000000000000E+000
-1,2969472E-001	-9,064022286565865E-002	8,621999782189960E-001	1,000000000000000E+000
-1,3139273E-001	-9,541968532903389E-002	8,655999781331047E-001	1,000000000000000E+000
-1,3309935E-001	-9,953033592682958E-002	8,689999780472135E-001	1,000000000000000E+000
-1,3478923E-001	-1,038364912928951E-001	8,723999779613223E-001	1,000000000000000E+000
-1,3651496E-001	-1,079960225406467E-001	8,757999778754311E-001	1,000000000000000E+000
-1,3821092E-001	-1,117347070448880E-001	8,791999777895398E-001	1,000000000000000E+000
-1,3990514E-001	-1,154268996324390E-001	8,825999777036486E-001	1,000000000000000E+000
-1,4160588E-001	-1,189044928723886E-001	8,859999776177574E-001	1,000000000000000E+000
-1,4328633E-001	-1,217955370530033E-001	8,893999775318662E-001	1,000000000000000E+000
-1,4499201E-001	-1,253673252231235E-001	8,927999774459749E-001	1,000000000000000E+000
-1,4671366E-001	-1,287042352723798E-001	8,961999773600837E-001	1,000000000000000E+000
-1,4841656E-001	-1,316191263849751E-001	8,995999772741925E-001	1,000000000000000E+000
-1,5010910E-001	-1,345423605453103E-001	9,029999771883013E-001	1,000000000000000E+000
-1,5180758E-001	-1,373523312877295E-001	9,063999771024100E-001	1,000000000000000E+000
-1,5351169E-001	-1,400430920211875E-001	9,097999770165188E-001	1,000000000000000E+000
-1,5520768E-001	-1,427445722165430E-001	9,131999769306276E-001	1,000000000000000E+000
-1,5689985E-001	-1,456189283971980E-001	9,165999768447364E-001	1,000000000000000E+000
-1,5860681E-001	-1,481737785297807E-001	9,199999767588452E-001	1,000000000000000E+000
-1,6031449E-001	-1,506427799768060E-001	9,233999766729539E-001	1,000000000000000E+000
-1,6201372E-001	-1,530521870236035E-001	9,267999765870627E-001	1,000000000000000E+000
-1,6371137E-001	-1,556034583791188E-001	9,301999765011715E-001	1,000000000000000E+000
-1,6540687E-001	-1,579019918299305E-001	9,335999764152803E-001	1,000000000000000E+000
-1,6711527E-001	-1,604604053245562E-001	9,369999763293890E-001	1,000000000000000E+000
-1,6879453E-001	-1,624382347254132E-001	9,403999762434978E-001	1,000000000000000E+000
-1,7049304E-001	-1,649346598005637E-001	9,437999761576066E-001	1,000000000000000E+000
-1,7220034E-001	-1,670090728985085E-001	9,471999760717154E-001	1,000000000000000E+000
-1,7391483E-001	-1,693624382805861E-001	9,505999759858241E-001	1,000000000000000E+000
-1,7559913E-001	-1,714725985384575E-001	9,539999758999329E-001	1,000000000000000E+000
-1,7730433E-001	-1,737174803165544E-001	9,573999758140417E-001	1,000000000000000E+000
-1,7899217E-001	-1,757417968474324E-001	9,607999757281505E-001	1,000000000000000E+000
-1,8069342E-001	-1,778173883412811E-001	9,641999756422592E-001	1,000000000000000E+000
-1,8239704E-001	-1,800908831719426E-001	9,675999755563680E-001	1,000000000000000E+000
-1,8409730E-001	-1,820448665494041E-001	9,709999754704768E-001	1,000000000000000E+000
-1,8580490E-001	-1,839809790926665E-001	9,743999753845856E-001	1,000000000000000E+000
-1,8750435E-001	-1,862699566408990E-001	9,777999752986943E-001	1,000000000000000E+000
-1,8920535E-001	-1,884540485571036E-001	9,811999752128031E-001	1,000000000000000E+000
-1,9090216E-001	-1,903591502650661E-001	9,845999751269119E-001	1,000000000000000E+000
-1,9261198E-001	-1,923870507562233E-001	9,879999750410207E-001	1,000000000000000E+000
-1,9431180E-001	-1,943326960445120E-001	9,913999749551294E-001	1,000000000000000E+000
-1,9600445E-001	-1,965966493789890E-001	9,947999748692382E-001	1,000000000000000E+000
-1,9770901E-001	-1,983920721177119E-001	9,981999747833470E-001	1,000000000000000E+000
-1,9915679E-001	-2,003002276707604E-001	1,001099974710087E+000	1,000000000000000E+000
-1,9981949E-001	-2,010649442672729E-001	1,002399974677246E+000	1,000000000000000E+000
-1,9991504E-001	-1,909933686256409E-001	1,002599974672194E+000	1,000000000000000E+000
-1,9980419E-001	-1,850992292165756E-001	1,002999974662089E+000	1,000000000000000E+000
-1,9881880E-001	-1,444458234573174E-001	1,004799974616617E+000	1,000000000000000E+000
-1,9711593E-001	-1,154650525832021E-001	1,008199974530726E+000	1,000000000000000E+000
-1,9541229E-001	-9,680261592347950E-002	1,011599974444835E+000	1,000000000000000E+000
-1,9370605E-001	-8,213162277661457E-002	1,014999974358943E+000	1,000000000000000E+000
-1,9200681E-001	-7,044346692873649E-002	1,018399974273052E+000	1,000000000000000E+000
-1,9031250E-001	-6,001543816228150E-002	1,021799974187161E+000	1,000000000000000E+000
-1,8861102E-001	-5,063057997631393E-002	1,025199974101270E+000	1,000000000000000E+000
-1,8691848E-001	-4,228529901774869E-002	1,028599974015378E+000	1,000000000000000E+000
-1,8520688E-001	-3,478289704912635E-002	1,031999973929487E+000	1,000000000000000E+000
-1,8351708E-001	-2,768106401640570E-002	1,035399973843596E+000	1,000000000000000E+000
-1,8181491E-001	-2,132434690417989E-002	1,038799973757705E+000	1,000000000000000E+000
-1,8011548E-001	-1,502366149054513E-002	1,042199973671814E+000	1,000000000000000E+000
-1,7841122E-001	-8,835041003123892E-003	1,045599973585922E+000	1,000000000000000E+000
-1,7670485E-001	-3,521482818236138E-003	1,048999973500031E+000	1,000000000000000E+000
-1,7501427E-001	1,907715991109175E-003	1,052399973414140E+000	1,000000000000000E+000
-1,7331994E-001	7,055560117066782E-003	1,055799973328249E+000	1,000000000000000E+000
-1,7160511E-001	1,212948838144717E-002	1,059199973242357E+000	1,000000000000000E+000
-1,6991818E-001	1,706393026177014E-002	1,062599973156466E+000	1,000000000000000E+000
-1,6820739E-001	2,174920780134924E-002	1,065999973070575E+000	1,000000000000000E+000
-1,6651033E-001	2,627354009268845E-002	1,069399972984684E+000	1,000000000000000E+000
-1,6482034E-001	3,066315534806563E-002	1,072799972898792E+000	1,000000000000000E+000
-1,6310582E-001	3,497170179616660E-002	1,076199972812901E+000	1,000000000000000E+000
-1,6139668E-001	3,915387978940998E-002	1,079599972727010E+000	1,000000000000000E+000
-1,5971828E-001	4,341950700700192E-002	1,082999972641119E+000	1,000000000000000E+000
-1,5800940E-001	4,767679415226682E-002	1,086399972555228E+000	1,000000000000000E+000
-1,5632799E-001	5,154423555040955E-002	1,089799972469336E+000	1,000000000000000E+000
-1,5460679E-001	5,589808594550089E-002	1,093199972383445E+000	1,000000000000000E+000
-1,5291727E-001	5,934825818985712E-002	1,096599972297554E+000	1,000000000000000E+000
-1,5122259E-001	6,330987972387481E-002	1,099999972211663E+000	1,000000000000000E+000
-1,5011336E-001	6,592672131955635E-002	1,102199972156086E+000	1,000000000000000E+000
-1,4981714E-001	6,522095948457718E-002	1,102799972140929E+000	2,000000000000000E+000
-1,4892322E-001	6,850302775774253E-002	1,104599972095457E+000	2,000000000000000E+000
-1,4723656E-001	7,232516253498023E-002	1,107999972009566E+000	2,000000000000000E+000
-1,4552324E-001	7,606265740150792E-002	1,111399971923674E+000	2,000000000000000E+000
-1,4381018E-001	7,974650097276048E-002	1,114799971837783E+000	2,000000000000000E+000
-1,4211206E-001	8,341603813823911E-002	1,118199971751892E+000	2,000000000000000E+000
-1,4041227E-001	8,717379566314809E-002	1,121599971666001E+000	2,000000000000000E+000
-1,3872619E-001	9,084691388761756E-002	1,124999971580110E+000	2,000000000000000E+000
-1,3701837E-001	9,451525562508356E-002	1,128399971494218E+000	2,000000000000000E+000
-1,3531093E-001	9,835051365098524E-002	1,131799971408327E+000	2,000000000000000E+000
-1,3361625E-001	1,018602964131787E-001	1,135199971322436E+000	2,000000000000000E+000
-1,3191573E-001	1,053796195810726E-001	1,138599971236545E+000	2,000000000000000E+000
-1,3021559E-001	1,094127733822462E-001	1,141999971150653E+000	2,000000000000000E+000
-1,2851876E-001	1,127115444360256E-001	1,145399971064762E+000	2,000000000000000E+000
-1,2682517E-001	1,165408304041193E-001	1,148799970978871E+000	2,000000000000000E+000
-1,2513575E-001	1,201853349612072E-001	1,152199970892980E+000	2,000000000000000E+000
-1,2343583E-001	1,236998894364666E-001	1,155599970807089E+000	2,000000000000000E+000
-1,2171572E-001	1,274874472155723E-001	1,158999970721197E+000	2,000000000000000E+000
-1,2003954E-001	1,311104938067729E-001	1,162399970635306E+000	2,000000000000000E+000
-1,1834130E-001	1,351174141409510E-001	1,165799970549415E+000	2,000000000000000E+000
-1,1663993E-001	1,387130439570690E-001	1,169199970463524E+000	2,000000000000000E+000
-1,1493500E-001	1,424696126214258E-001	1,172599970377632E+000	2,000000000000000E+000
-1,1323806E-001	1,458387069051242E-001	1,175999970291741E+000	2,000000000000000E+000
-1,1154028E-001	1,500900382015973E-001	1,179399970205850E+000	2,000000000000000E+000
-1,0982866E-001	1,540266132560653E-001	1,182799970119959E+000	2,000000000000000E+000
-1,0813745E-001	1,578618690564331E-001	1,186199970034068E+000	2,000000000000000E+000
-1,0643836E-001	1,614515393939655E-001	1,189599969948176E+000	2,000000000000000E+000
-1,0472398E-001	1,656766300056916E-001	1,192999969862285E+000	2,000000000000000E+000
-1,0302489E-001	1,692651025950918E-001	1,196399969776394E+000	2,000000000000000E+000
-1,0133190E-001	1,732517545915480E-001	1,199799969690503E+000	2,000000000000000E+000
-1,0024047E-001	1,759890158500637E-001	1,201999969634926E+000	2,000000000000000E+000
-9,9921800E-002	1,767329424619675E-001	1,202599969619769E+000	2,000000000000000E+000
-9,9826254E-002	1,773051917552948E-001	1,202799969614716E+000	2,000000000000000E+000
-9,9948555E-002	1,604048311710358E-001	1,202999969609664E+000	2,000000000000000E+000
-1,0082345E-001	1,186283437727986E-001	1,204799969564192E+000	2,000000000000000E+000
-1,0252924E-001	8,026867975513607E-002	1,208199969478301E+000	2,000000000000000E+000
-1,0422416E-001	5,620805029275289E-002	1,211599969392410E+000	2,000000000000000E+000
-1,0590569E-001	3,731433983193727E-002	1,214999969306518E+000	2,000000000000000E+000
-1,0762221E-001	2,128902628339804E-002	1,218399969220627E+000	2,000000000000000E+000
-1,0933802E-001	8,344308561788694E-003	1,221799969134736E+000	2,000000000000000E+000
-1,1103149E-001	-3,447567465642884E-003	1,225199969048845E+000	2,000000000000000E+000
-1,1272436E-001	-1,416052085937733E-002	1,228599968962953E+000	2,000000000000000E+000
-1,1443254E-001	-2,353226927766627E-002	1,231999968877062E+000	2,000000000000000E+000
-1,1612457E-001	-3,216367261484263E-002	1,235399968791171E+000	2,000000000000000E+000
-1,1783214E-001	-4,014175910788231E-002	1,238799968705280E+000	2,000000000000000E+000
-1,1952453E-001	-4,718994188669945E-002	1,242199968619389E+000	2,000000000000000E+000
-1,2122925E-001	-5,427627363724230E-002	1,245599968533497E+000	2,000000000000000E+000
-1,2292631E-001	-6,045654928311661E-002	1,248999968447606E+000	2,000000000000000E+000
-1,2461955E-001	-6,644250307999755E-002	1,252399968361715E+000	2,000000000000000E+000
-1,2630777E-001	-7,218167092969424E-002	1,255799968275824E+000	2,000000000000000E+000
-1,2800339E-001	-7,732593152059053E-002	1,259199968189932E+000	2,000000000000000E+000
-1,2969843E-001	-8,237125212326624E-002	1,262599968104041E+000	2,000000000000000E+000
-1,3139524E-001	-8,690750387268009E-002	1,265999968018150E+000	2,000000000000000E+000
-1,3309933E-001	-9,145925220036596E-002	1,269399967932259E+000	2,000000000000000E+000
-1,3479055E-001	-9,587987424674760E-002	1,272799967846368E+000	2,000000000000000E+000
-1,3649778E-001	-1,001753031805488E-001	1,276199967760476E+000	2,000000000000000E+000
-1,3819829E-001	-1,042251509597915E-001	1,279599967674585E+000	2,000000000000000E+000
-1,3990095E-001	-1,076276336989395E-001	1,282999967588694E+000	2,000000000000000E+000
-1,4158344E-001	-1,112339875371616E-001	1,286399967502803E+000	2,000000000000000E+000
-1,4329806E-001	-1,148176886799770E-001	1,289799967416911E+000	2,000000000000000E+000
-1,4500681E-001	-1,182940967364624E-001	1,293199967331020E+000	2,000000000000000E+000
-1,4671473E-001	-1,215869024845229E-001	1,296599967245129E+000	2,000000000000000E+000
-1,4840488E-001	-1,244791429280667E-001	1,299999967159238E+000	2,000000000000000E+000
-1,5011196E-001	-1,275955144765239E-001	1,303399967073346E+000	2,000000000000000E+000
-1,5179862E-001	-1,305020561858328E-001	1,306799966987455E+000	2,000000000000000E+000
-1,5350358E-001	-1,332977231077159E-001	1,310199966901564E+000	2,000000000000000E+000
-1,5520817E-001	-1,358835713745065E-001	1,313599966815673E+000	2,000000000000000E+000
-1,5690830E-001	-1,388783287866315E-001	1,316999966729782E+000	2,000000000000000E+000
-1,5862124E-001	-1,415762299093326E-001	1,320399966643890E+000	2,000000000000000E+000
-1,6031511E-001	-1,440166355077961E-001	1,323799966557999E+000	2,000000000000000E+000
-1,6200557E-001	-1,465679083821665E-001	1,327199966472108E+000	2,000000000000000E+000
-1,6372082E-001	-1,493182742742645E-001	1,330599966386217E+000	2,000000000000000E+000
-1,6542180E-001	-1,517074119556120E-001	1,333999966300325E+000	2,000000000000000E+000
-1,6709425E-001	-1,539356056728134E-001	1,337399966214434E+000	2,000000000000000E+000
-1,6880575E-001	-1,561554474337754E-001	1,340799966128543E+000	2,000000000000000E+000
-1,7050509E-001	-1,584682765769687E-001	1,344199966042652E+000	2,000000000000000E+000
-1,7220286E-001	-1,606618808582425E-001	1,347599965956761E+000	2,000000000000000E+000
-1,7391209E-001	-1,629902253825994E-001	1,350999965870869E+000	2,000000000000000E+000
-1,7561395E-001	-1,656487863092482E-001	1,354399965784978E+000	2,000000000000000E+000
-1,7730193E-001	-1,673011593102274E-001	1,357799965699087E+000	2,000000000000000E+000
-1,7900495E-001	-1,696592931184560E-001	1,361199965613196E+000	2,000000000000000E+000
-1,8069032E-001	-1,717241473143072E-001	1,364599965527304E+000	2,000000000000000E+000
-1,8238628E-001	-1,737782710424649E-001	1,367999965441413E+000	2,000000000000000E+000
-1,8410376E-001	-1,759051318313141E-001	1,371399965355522E+000	2,000000000000000E+000
-1,8579714E-001	-1,782549260024089E-001	1,374799965269631E+000	2,000000000000000E+000
-1,8750495E-001	-1,802685114907952E-001	1,378199965183740E+000	2,000000000000000E+000
-1,8919817E-001	-1,822856884191424E-001	1,381599965097848E+000	2,000000000000000E+000
-1,9090299E-001	-1,842873625391803E-001	1,384999965011957E+000	2,000000000000000E+000
-1,9261676E-001	-1,862497018810240E-001	1,388399964926066E+000	2,000000000000000E+000
-1,9430286E-001	-1,883622467066735E-001	1,391799964840175E+000	2,000000000000000E+000
-1,9600634E-001	-1,904545226261680E-001	1,395199964754283E+000	2,000000000000000E+000
-1,9770797E-001	-1,927566278918662E-001	1,398599964668392E+000	2,000000000000000E+000
-1,9916670E-001	-1,943783304066691E-001	1,401499964595132E+000	2,000000000000000E+000
-1,9980802E-001	-1,937401741743088E-001	1,402799964562291E+000	2,000000000000000E+000
-1,9994561E-001	-1,860720366239548E-001	1,402999964557239E+000	2,000000000000000E+000
-1,9978891E-001	-1,788998842239380E-001	1,403399964547134E+000	2,000000000000000E+000
-1,9882323E-001	-1,386446634933238E-001	1,405199964501662E+000	2,000000000000000E+000
-1,9712892E-001	-1,098784793521187E-001	1,408599964415771E+000	2,000000000000000E+000
-1,9541883E-001	-9,129950476744852E-002	1,411999964329880E+000	2,000000000000000E+000
-1,9371630E-001	-7,735812151804500E-002	1,415399964243989E+000	2,000000000000000E+000
-1,9201612E-001	-6,550901926857478E-002	1,418799964158097E+000	2,000000000000000E+000
-1,9030666E-001	-5,509411110460832E-002	1,422199964072206E+000	2,000000000000000E+000
-1,8862249E-001	-4,598702830662632E-002	1,425599963986315E+000	2,000000000000000E+000
-1,8691278E-001	-3,763221240569684E-002	1,428999963900424E+000	2,000000000000000E+000
-1,8520917E-001	-3,040400820236749E-002	1,432399963814532E+000	2,000000000000000E+000
-1,8350622E-001	-2,362525902231016E-002	1,435799963728641E+000	2,000000000000000E+000
-1,8180236E-001	-1,693949900459296E-002	1,439199963642750E+000	2,000000000000000E+000
-1,8009454E-001	-1,089274749472227E-002	1,442599963556859E+000	2,000000000000000E+000
-1,7842211E-001	-5,002173907541860E-003	1,445999963470967E+000	2,000000000000000E+000
-1,7671445E-001	8,037551377171335E-004	1,449399963385076E+000	2,000000000000000E+000
-1,7501748E-001	5,843110384063279E-003	1,452799963299185E+000	2,000000000000000E+000
-1,7329951E-001	1,092419112342215E-002	1,456199963213294E+000	2,000000000000000E+000
-1,7160009E-001	1,587055571826562E-002	1,459599963127403E+000	2,000000000000000E+000
-1,6991962E-001	2,064882388242502E-002	1,462999963041511E+000	2,000000000000000E+000
-1,6821429E-001	2,521726577742822E-002	1,466399962955620E+000	2,000000000000000E+000
-1,6651784E-001	2,987154792344882E-002	1,469799962869729E+000	2,000000000000000E+000
-1,6481447E-001	3,416340158901221E-002	1,473199962783838E+000	2,000000000000000E+000
-1,6312303E-001	3,844214455898520E-002	1,476599962697946E+000	2,000000000000000E+000
-1,6143049E-001	4,267797148304453E-002	1,479999962612055E+000	2,000000000000000E+000
-1,5971529E-001	4,705924195286587E-002	1,483399962526164E+000	2,000000000000000E+000
-1,5802611E-001	5,074308494204194E-002	1,486799962440273E+000	2,000000000000000E+000
-1,5632701E-001	5,515773790602907E-002	1,490199962354382E+000	2,000000000000000E+000
-1,5462390E-001	5,882727544485555E-002	1,493599962268490E+000	2,000000000000000E+000
-1,5291727E-001	6,252899991977756E-002	1,496999962182599E+000	2,000000000000000E+000
-1,5121554E-001	6,656453884852453E-002	1,500399962096708E+000	2,000000000000000E+000
-1,5012436E-001	6,928867774149694E-002	1,502599962041131E+000	2,000000000000000E+000
-1,4983626E-001	6,945559382438660E-002	1,503199962025974E+000	3,000000000000000E+000
-1,4893457E-001	7,169450187802806E-002	1,504999961980502E+000	3,000000000000000E+000
-1,4723249E-001	7,557624624723763E-002	1,508399961894611E+000	3,000000000000000E+000
-1,4551765E-001	7,910510894907924E-002	1,511799961808720E+000	3,000000000000000E+000
-1,4382310E-001	8,281160507613072E-002	1,515199961722828E+000	3,000000000000000E+000
-1,4211050E-001	8,644179643033612E-002	1,518599961636937E+000	3,000000000000000E+000
-1,4041834E-001	9,012683374839991E-002	1,521999961551046E+000	3,000000000000000E+000
-1,3872246E-001	9,372365198032684E-002	1,525399961465155E+000	3,000000000000000E+000
-1,3701263E-001	9,779614525177815E-002	1,528799961379264E+000	3,000000000000000E+000
-1,3531511E-001	1,011950601277931E-001	1,532199961293372E+000	3,000000000000000E+000
-1,3361576E-001	1,050565403629665E-001	1,535599961207481E+000	3,000000000000000E+000
-1,3190176E-001	1,086879246049648E-001	1,538999961121590E+000	3,000000000000000E+000
-1,3021690E-001	1,122883141715649E-001	1,542399961035699E+000	3,000000000000000E+000
-1,2851864E-001	1,158577086853261E-001	1,545799960949807E+000	3,000000000000000E+000
-1,2682182E-001	1,195999729816333E-001	1,549199960863916E+000	3,000000000000000E+000
-1,2513432E-001	1,229023220885219E-001	1,552599960778025E+000	3,000000000000000E+000
-1,2343583E-001	1,268293679322601E-001	1,555999960692134E+000	3,000000000000000E+000
-1,2173147E-001	1,305382415202986E-001	1,559399960606243E+000	3,000000000000000E+000
-1,2004265E-001	1,341899062636003E-001	1,562799960520351E+000	3,000000000000000E+000
-1,1834046E-001	1,380322997747496E-001	1,566199960434460E+000	3,000000000000000E+000
-1,1664172E-001	1,417316487541033E-001	1,569599960348569E+000	3,000000000000000E+000
-1,1493596E-001	1,454166778203217E-001	1,572999960262678E+000	3,000000000000000E+000
-1,1323269E-001	1,489431589970995E-001	1,576399960176786E+000	3,000000000000000E+000
-1,1153670E-001	1,530526069154803E-001	1,579799960090895E+000	3,000000000000000E+000
-1,0983521E-001	1,569522281915856E-001	1,583199960005004E+000	3,000000000000000E+000
-1,0812957E-001	1,605001786338107E-001	1,586599959919113E+000	3,000000000000000E+000
-1,0643644E-001	1,647514914129715E-001	1,589999959833222E+000	3,000000000000000E+000
-1,0472231E-001	1,682970455913173E-001	1,593399959747330E+000	3,000000000000000E+000
-1,0302669E-001	1,724041115139699E-001	1,596799959661439E+000	3,000000000000000E+000
-1,0132749E-001	1,763037482887744E-001	1,600199959575548E+000	3,000000000000000E+000
-1,0022470E-001	1,796656958758831E-001	1,602399959519971E+000	3,000000000000000E+000
-9,9921808E-002	1,806242465972900E-001	1,602999959504814E+000	3,000000000000000E+000
-9,9845365E-002	1,794034391641617E-001	1,603199959499761E+000	3,000000000000000E+000
-9,9906512E-002	1,617782115936279E-001	1,603399959494709E+000	3,000000000000000E+000
-1,0081748E-001	1,213703621388056E-001	1,605199959449237E+000	3,000000000000000E+000
-1,0251695E-001	8,334212473528169E-002	1,608599959363346E+000	3,000000000000000E+000
-1,0422821E-001	5,919565855492692E-002	1,611999959277455E+000	3,000000000000000E+000
-1,0591882E-001	4,030433505022302E-002	1,615399959191564E+000	3,000000000000000E+000
-1,0762399E-001	2,462117520747154E-002	1,618799959105672E+000	3,000000000000000E+000
-1,0933086E-001	1,099929898197172E-002	1,622199959019781E+000	3,000000000000000E+000
-1,1102193E-001	-4,361144816726805E-004	1,625599958933890E+000	3,000000000000000E+000
-1,1272845E-001	-1,091778388473580E-002	1,628999958847999E+000	3,000000000000000E+000
-1,1444747E-001	-2,052081572333005E-002	1,632399958762107E+000	3,000000000000000E+000
-1,1612756E-001	-2,932269857706166E-002	1,635799958676216E+000	3,000000000000000E+000
-1,1783095E-001	-3,699320486407481E-002	1,639199958590325E+000	3,000000000000000E+000
-1,1952776E-001	-4,432870256550792E-002	1,642599958504434E+000	3,000000000000000E+000
-1,2123248E-001	-5,118375092115446E-002	1,645999958418543E+000	3,000000000000000E+000
-1,2292656E-001	-5,742244350176401E-002	1,649399958332651E+000	3,000000000000000E+000
-1,2463806E-001	-6,375174330514710E-002	1,652799958246760E+000	3,000000000000000E+000
-1,2631552E-001	-6,929539325165024E-002	1,656199958160869E+000	3,000000000000000E+000
-1,2801164E-001	-7,435262832177603E-002	1,659599958074978E+000	3,000000000000000E+000
-1,2971263E-001	-7,939437034474373E-002	1,662999957989086E+000	3,000000000000000E+000
-1,3140957E-001	-8,414521955819476E-002	1,666399957903195E+000	3,000000000000000E+000
-1,3310280E-001	-8,873034654789058E-002	1,669799957817304E+000	3,000000000000000E+000
-1,3479607E-001	-9,313069703694010E-002	1,673199957731413E+000	3,000000000000000E+000
-1,3650003E-001	-9,716981207020536E-002	1,676599957645522E+000	3,000000000000000E+000
-1,3820769E-001	-1,010873188633914E-001	1,679999957559630E+000	3,000000000000000E+000
-1,3991278E-001	-1,047258616890756E-001	1,683399957473739E+000	3,000000000000000E+000
-1,4159194E-001	-1,083524840787501E-001	1,686799957387848E+000	3,000000000000000E+000
-1,4330940E-001	-1,121603162846440E-001	1,690199957301957E+000	3,000000000000000E+000
-1,4501220E-001	-1,153303265764407E-001	1,693599957216065E+000	3,000000000000000E+000
-1,4672168E-001	-1,185992934997557E-001	1,696999957130174E+000	3,000000000000000E+000
-1,4841360E-001	-1,218122280861276E-001	1,700399957044283E+000	3,000000000000000E+000
-1,5011770E-001	-1,245971658699996E-001	1,703799956958392E+000	3,000000000000000E+000
-1,5181834E-001	-1,276169733882849E-001	1,707199956872500E+000	3,000000000000000E+000
-1,5352246E-001	-1,303709111689377E-001	1,710599956786609E+000	3,000000000000000E+000
-1,5521689E-001	-1,331868474917424E-001	1,713999956700718E+000	3,000000000000000E+000
-1,5692323E-001	-1,362483676330153E-001	1,717399956614827E+000	3,000000000000000E+000
-1,5860322E-001	-1,385385555022366E-001	1,720799956528936E+000	3,000000000000000E+000
-1,6030949E-001	-1,409336486349274E-001	1,724199956443044E+000	3,000000000000000E+000
-1,6200104E-001	-1,437424310579445E-001	1,727599956357153E+000	3,000000000000000E+000
-1,6371508E-001	-1,462829744250482E-001	1,730999956271262E+000	3,000000000000000E+000
-1,6542228E-001	-1,487543711309622E-001	1,734399956185371E+000	3,000000000000000E+000
-1,6711062E-001	-1,510612389811286E-001	1,737799956099479E+000	3,000000000000000E+000
-1,6880360E-001	-1,533407048063959E-001	1,741199956013588E+000	3,000000000000000E+000
-1,7050485E-001	-1,558299855714718E-001	1,744599955927697E+000	3,000000000000000E+000
-1,7221266E-001	-1,577660794755502E-001	1,747999955841806E+000	3,000000000000000E+000
-1,7389753E-001	-1,600967958183895E-001	1,751399955755915E+000	3,000000000000000E+000
-1,7561430E-001	-1,623357196112920E-001	1,754799955670023E+000	3,000000000000000E+000
-1,7731816E-001	-1,645925135671855E-001	1,758199955584132E+000	3,000000000000000E+000
-1,7900448E-001	-1,666001490830236E-001	1,761599955498241E+000	3,000000000000000E+000
-1,8072088E-001	-1,687305737832503E-001	1,764999955412350E+000	3,000000000000000E+000
-1,8240207E-001	-1,708598208260810E-001	1,768399955326458E+000	3,000000000000000E+000
-1,8410507E-001	-1,729723624466715E-001	1,771799955240567E+000	3,000000000000000E+000
-1,8580548E-001	-1,751254398568554E-001	1,775199955154676E+000	3,000000000000000E+000
-1,8751498E-001	-1,772105624095275E-001	1,778599955068785E+000	3,000000000000000E+000
-1,8921046E-001	-1,792050814929098E-001	1,781999954982894E+000	3,000000000000000E+000
-1,9091243E-001	-1,813820181414476E-001	1,785399954897002E+000	3,000000000000000E+000
-1,9260482E-001	-1,831810105431932E-001	1,788799954811111E+000	3,000000000000000E+000
-1,9430345E-001	-1,854235129430890E-001	1,792199954725220E+000	3,000000000000000E+000
-1,9601986E-001	-1,874836058323117E-001	1,795599954639329E+000	3,000000000000000E+000
-1,9772296E-001	-1,892003498905965E-001	1,798999954553437E+000	3,000000000000000E+000
-1,9916183E-001	-1,909049574857240E-001	1,801899954480177E+000	3,000000000000000E+000
-1,9980039E-001	-1,931297630071640E-001	1,803199954447337E+000	3,000000000000000E+000
-1,9992268E-001	-1,828293204307556E-001	1,803399954442284E+000	3,000000000000000E+000
-1,9984624E-001	-1,759241968393326E-001	1,803799954432179E+000	3,000000000000000E+000
-1,9883278E-001	-1,358561366314457E-001	1,805599954386707E+000	3,000000000000000E+000
-1,9714075E-001	-1,071066513432011E-001	1,808999954300816E+000	3,000000000000000E+000
-1,9542792E-001	-8,866358881914493E-002	1,812399954214925E+000	3,000000000000000E+000
-1,9371392E-001	-7,470671017972519E-002	1,815799954129034E+000	3,000000000000000E+000
-1,9202484E-001	-6,306266147112172E-002	1,819199954043143E+000	3,000000000000000E+000
-1,9031177E-001	-5,269663117360296E-002	1,822599953957251E+000	3,000000000000000E+000
-1,8863229E-001	-4,360266225012310E-002	1,825999953871360E+000	3,000000000000000E+000
-1,8692391E-001	-3,542071608103467E-002	1,829399953785469E+000	3,000000000000000E+000
-1,8521176E-001	-2,825331193162106E-002	1,832799953699578E+000	3,000000000000000E+000
-1,8351686E-001	-2,150675082089036E-002	1,836199953613686E+000	3,000000000000000E+000
-1,8182865E-001	-1,473515282589227E-002	1,839599953527795E+000	3,000000000000000E+000
-1,8011692E-001	-8,792121893350182E-003	1,842999953441904E+000	3,000000000000000E+000
-1,7842117E-001	-2,828825109702379E-003	1,846399953356013E+000	3,000000000000000E+000
-1,7672993E-001	2,708862642143650E-003	1,849799953270121E+000	3,000000000000000E+000
-1,7501870E-001	8,024804019328285E-003	1,853199953184230E+000	3,000000000000000E+000
-1,7330526E-001	1,302124045423625E-002	1,856599953098339E+000	3,000000000000000E+000
-1,7162541E-001	1,805701877617602E-002	1,859999953012448E+000	3,000000000000000E+000
-1,6990840E-001	2,265884342386940E-002	1,863399952926557E+000	3,000000000000000E+000
-1,6821946E-001	2,737869401062198E-002	1,866799952840665E+000	3,000000000000000E+000
-1,6650566E-001	3,174088959872279E-002	1,870199952754774E+000	3,000000000000000E+000
-1,6483323E-001	3,595644636402567E-002	1,873599952668883E+000	3,000000000000000E+000
-1,6312672E-001	4,050700489096937E-002	1,876999952582992E+000	3,000000000000000E+000
-1,6142142E-001	4,473210337073419E-002	1,880399952497100E+000	3,000000000000000E+000
-1,5972830E-001	4,868538171967896E-002	1,883799952411209E+000	3,000000000000000E+000
-1,5803435E-001	5,282106069080350E-002	1,887199952325318E+000	3,000000000000000E+000
-1,5632559E-001	5,676957173272970E-002	1,890599952239427E+000	3,000000000000000E+000
-1,5462184E-001	6,073238291810421E-002	1,893999952153536E+000	3,000000000000000E+000
-1,5292096E-001	6,438165023473641E-002	1,897399952067644E+000	3,000000000000000E+000
-1,5122224E-001	6,845891459943250E-002	1,900799951981753E+000	3,000000000000000E+000
-1,5018472E-001	7,064458631066373E-002	1,902899951928703E+000	3,000000000000000E+000
-1,4991269E-001	7,098158448934555E-002	1,903399951916072E+000	3,000000000000000E+000
-1,4979421E-001	7,105788588523865E-002	1,903599951911019E+000	3,000000000000000E+000