File: ECSA/ECSA header/4 CV for ECSA_03_CV_C01.txt
EC-Lab ASCII FILE
Nb header lines : 61

Cyclic Voltammetry

Run on channel : 1 (SN 1153)
User :
Electrode connection : standard
Potential control : Ewe
Ewe ctrl range : min = -2,50 V, max = 2,50 V
Ewe,I filtering : 50 kHz
Safety Limits :
	Do not start on E overload
Channel : Grounded
Acquisition started on : 12/20/2024 11:49:19.340
Technique started on : 12/20/2024 11:49:21.345
Loaded Setting File :  C:\Users\lab10\Desktop\Andraž Stariha\T20-6_ED-PP-Fe-1-1.5V-50-10-60m\6 CV for ECSA.mps
Saved on :
	File : 4 CV for ECSA_03_CV_C01.mpr
	Directory : C:\Users\lab10\Desktop\Andraž Stariha\IMT16-Fe-3_ED-PP-Co-1-1.5V-50-10-60m\
	Host : 178.172.20.122
Device : SP-200 (SN 0067)
Address : USB
EC-Lab for windows v11.52 (software)
Internet server v11.52 (firmware)
Command interpretor v11.52 (firmware)
Electrode material :
Initial state :
Electrolyte :
Comments :
Cable : standard
Reference electrode : SCE Saturated Calomel Electrode (0,241 V)
Electrode surface area : 0,001 cm²
Characteristic mass : 0,001 g
Equivalent Weight : 0,000 g/eq.
Density : 0,000 g/cm3
Volume (V) : 0,001 cm³
Cycle Definition : Charge/Discharge alternance
Ei (V)              -0,150
vs.                 Ref
dE/dt               300,000
dE/dt unit          mV/s
E1 (V)              0,050
vs.                 Ei
Step percent        85
N                   17
E range min (V)     -2,500
E range max (V)     2,500
I Range             10 mA
I Range min         Unset
I Range max         Unset
I Range init        Unset
Bandwidth           8
E2 (V)              -0,050
vs.                 Ei
nc cycles           2
Reverse Scan        1
Ef (V)              0,000
vs.                 Ei

Ewe/V	<I>/mA	time/s	cycle number
-1,4990123E-001	2,367577701807022E-002	2,004599949359545E+000	1,000000000000000E+000
-1,4902332E-001	1,962969130034681E-002	2,007599949283758E+000	1,000000000000000E+000
-1,4730223E-001	2,468392065849106E-002	2,013299949139764E+000	1,000000000000000E+000
-1,4561607E-001	3,086843370611975E-002	2,018899948998296E+000	1,000000000000000E+000
-1,4390770E-001	3,636572995282450E-002	2,024599948854302E+000	1,000000000000000E+000
-1,4219727E-001	4,102194293820370E-002	2,030299948710308E+000	1,000000000000000E+000
-1,4052947E-001	4,587121482742340E-002	2,035899948568840E+000	1,000000000000000E+000
-1,3881998E-001	5,025740996279648E-002	2,041599948424846E+000	1,000000000000000E+000
-1,3710073E-001	5,433411840230878E-002	2,047299948280852E+000	1,000000000000000E+000
-1,3541836E-001	5,791455515605396E-002	2,052899948139384E+000	1,000000000000000E+000
-1,3369356E-001	6,163926550904697E-002	2,058599947995390E+000	1,000000000000000E+000
-1,3199736E-001	6,511709958431344E-002	2,064299947851396E+000	1,000000000000000E+000
-1,3032272E-001	6,910940983059992E-002	2,069899947709928E+000	1,000000000000000E+000
-1,2860909E-001	7,214074346288379E-002	2,075599947565934E+000	1,000000000000000E+000
-1,2689374E-001	7,543946202673035E-002	2,081299947421940E+000	1,000000000000000E+000
-1,2524195E-001	7,916613772114833E-002	2,086899947280472E+000	1,000000000000000E+000
-1,2352677E-001	8,233482233033795E-002	2,092599947136478E+000	1,000000000000000E+000
-1,2182068E-001	8,564313306339599E-002	2,098299946992483E+000	1,000000000000000E+000
-1,2014972E-001	8,869229212480922E-002	2,103899946851016E+000	1,000000000000000E+000
-1,1844036E-001	9,236162659027092E-002	2,109599946707021E+000	1,000000000000000E+000
-1,1671826E-001	9,502869741764808E-002	2,115299946563027E+000	1,000000000000000E+000
-1,1505055E-001	9,853495551538394E-002	2,120899946421559E+000	1,000000000000000E+000
-1,1333154E-001	1,014772417631602E-001	2,126599946277565E+000	1,000000000000000E+000
-1,1162774E-001	1,046177317718198E-001	2,132299946133571E+000	1,000000000000000E+000
-1,0995245E-001	1,080406220479984E-001	2,137899945992103E+000	1,000000000000000E+000
-1,0822602E-001	1,109251984738739E-001	2,143599945848109E+000	1,000000000000000E+000
-1,0652309E-001	1,141142211940704E-001	2,149299945704115E+000	1,000000000000000E+000
-1,0484230E-001	1,175575905147488E-001	2,154899945562647E+000	1,000000000000000E+000
-1,0312013E-001	1,203643498788904E-001	2,160599945418653E+000	1,000000000000000E+000
-1,0141396E-001	1,236855883498382E-001	2,166299945274659E+000	1,000000000000000E+000
-1,0026643E-001	1,255591535591520E-001	2,170099945178663E+000	1,000000000000000E+000
-9,9895045E-002	1,307623833417892E-001	2,171199945150875E+000	1,000000000000000E+000
-9,9814788E-002	1,252306699752808E-001	2,171599945140770E+000	1,000000000000000E+000
-1,0071568E-001	8,868169660180947E-002	2,174499945067510E+000	1,000000000000000E+000
-1,0241094E-001	5,869512898649343E-002	2,180199944923515E+000	1,000000000000000E+000
-1,0413440E-001	4,041295829652158E-002	2,185899944779521E+000	1,000000000000000E+000
-1,0580239E-001	2,574293242583681E-002	2,191499944638053E+000	1,000000000000000E+000
-1,0753742E-001	1,403560496846004E-002	2,197199944494059E+000	1,000000000000000E+000
-1,0923838E-001	4,302016152935989E-003	2,202899944350065E+000	1,000000000000000E+000
-1,1092484E-001	-4,804492324035861E-003	2,208499944208597E+000	1,000000000000000E+000
-1,1263646E-001	-1,287470642700309E-002	2,214199944064603E+000	1,000000000000000E+000
-1,1433429E-001	-1,911280523226772E-002	2,219899943920609E+000	1,000000000000000E+000
-1,1601961E-001	-2,554953163430429E-002	2,225499943779141E+000	1,000000000000000E+000
-1,1774383E-001	-3,185718767515655E-002	2,231199943635147E+000	1,000000000000000E+000
-1,1944322E-001	-3,705382735050204E-002	2,236899943491153E+000	1,000000000000000E+000
-1,2111787E-001	-4,156823001971183E-002	2,242499943349685E+000	1,000000000000000E+000
-1,2283391E-001	-4,685007456086709E-002	2,248199943205691E+000	1,000000000000000E+000
-1,2454820E-001	-5,123285469178662E-002	2,253899943061697E+000	1,000000000000000E+000
-1,2621520E-001	-5,531912819693663E-002	2,259499942920229E+000	1,000000000000000E+000
-1,2791672E-001	-5,896999108993506E-002	2,265199942776235E+000	1,000000000000000E+000
-1,2962748E-001	-6,255700383405394E-002	2,270899942632241E+000	1,000000000000000E+000
-1,3130292E-001	-6,641437854678167E-002	2,276499942490773E+000	1,000000000000000E+000
-1,3299701E-001	-6,948247730178969E-002	2,282199942346779E+000	1,000000000000000E+000
-1,3472071E-001	-7,239754542630758E-002	2,287899942202785E+000	1,000000000000000E+000
-1,3640033E-001	-7,560213661512247E-002	2,293499942061317E+000	1,000000000000000E+000
-1,3811709E-001	-7,863917299087297E-002	2,299199941917323E+000	1,000000000000000E+000
-1,3982631E-001	-8,068665663207253E-002	2,304899941773328E+000	1,000000000000000E+000
-1,4150585E-001	-8,364679776369244E-002	2,310499941631861E+000	1,000000000000000E+000
-1,4320894E-001	-8,655086101106652E-002	2,316199941487866E+000	1,000000000000000E+000
-1,4492626E-001	-8,884860578432877E-002	2,321899941343872E+000	1,000000000000000E+000
-1,4660983E-001	-9,093766224827071E-002	2,327499941202404E+000	1,000000000000000E+000
-1,4832267E-001	-9,367387044767372E-002	2,333199941058410E+000	1,000000000000000E+000
-1,5000558E-001	-9,609051708237204E-002	2,338799940916942E+000	1,000000000000000E+000
-1,5171757E-001	-9,753475743572237E-002	2,344499940772948E+000	1,000000000000000E+000
-1,5342031E-001	-1,003331209784069E-001	2,350099940631480E+000	1,000000000000000E+000
-1,5510845E-001	-1,024483348334724E-001	2,355799940487486E+000	1,000000000000000E+000
-1,5681885E-001	-1,041742440451072E-001	2,361499940343492E+000	1,000000000000000E+000
-1,5851672E-001	-1,063834044325629E-001	2,367099940202024E+000	1,000000000000000E+000
-1,6020544E-001	-1,086359424510963E-001	2,372799940058030E+000	1,000000000000000E+000
-1,6192077E-001	-1,097271680498829E-001	2,378499939914036E+000	1,000000000000000E+000
-1,6360915E-001	-1,122337528515212E-001	2,384099939772568E+000	1,000000000000000E+000
-1,6531764E-001	-1,139006273588166E-001	2,389799939628574E+000	1,000000000000000E+000
-1,6702786E-001	-1,152603061243469E-001	2,395499939484580E+000	1,000000000000000E+000
-1,6870804E-001	-1,174857130061824E-001	2,401099939343112E+000	1,000000000000000E+000
-1,7041111E-001	-1,190163737147274E-001	2,406799939199118E+000	1,000000000000000E+000
-1,7211521E-001	-1,208958893376222E-001	2,412499939055124E+000	1,000000000000000E+000
-1,7380632E-001	-1,224918193372466E-001	2,418099938913656E+000	1,000000000000000E+000
-1,7551816E-001	-1,240969112483210E-001	2,423799938769662E+000	1,000000000000000E+000
-1,7721795E-001	-1,256321257301516E-001	2,429499938625668E+000	1,000000000000000E+000
-1,7891076E-001	-1,276865653484562E-001	2,435099938484200E+000	1,000000000000000E+000
-1,8060485E-001	-1,290938124494943E-001	2,440799938340206E+000	1,000000000000000E+000
-1,8231831E-001	-1,303690638273514E-001	2,446499938196212E+000	1,000000000000000E+000
-1,8400659E-001	-1,322631287734510E-001	2,452099938054744E+000	1,000000000000000E+000
-1,8571787E-001	-1,337664299622134E-001	2,457799937910750E+000	1,000000000000000E+000
-1,8742412E-001	-1,352578989085650E-001	2,463499937766755E+000	1,000000000000000E+000
-1,8909946E-001	-1,370580029022809E-001	2,469099937625288E+000	1,000000000000000E+000
-1,9079553E-001	-1,382600421515789E-001	2,474799937481293E+000	1,000000000000000E+000
-1,9251366E-001	-1,400457066575416E-001	2,480499937337299E+000	1,000000000000000E+000
-1,9418839E-001	-1,409973226249417E-001	2,486099937195831E+000	1,000000000000000E+000
-1,9592111E-001	-1,435540723586399E-001	2,491799937051837E+000	1,000000000000000E+000
-1,9762430E-001	-1,444788571232623E-001	2,497499936907843E+000	1,000000000000000E+000
-1,9908129E-001	-1,457648560070081E-001	2,502399936784059E+000	1,000000000000000E+000
-1,9982332E-001	-1,433060765266418E-001	2,504799936723430E+000	1,000000000000000E+000
-1,9989209E-001	-1,424667835235596E-001	2,504999936718377E+000	1,000000000000000E+000
-1,9982331E-001	-1,349131166934967E-001	2,505399936708272E+000	1,000000000000000E+000
-1,9892292E-001	-1,117660668608518E-001	2,508299936635012E+000	1,000000000000000E+000
-1,9721374E-001	-8,923235364076931E-002	2,513999936491018E+000	1,000000000000000E+000
-1,9550434E-001	-7,564381271367870E-002	2,519699936347024E+000	1,000000000000000E+000
-1,9382554E-001	-6,496044889489061E-002	2,525299936205556E+000	1,000000000000000E+000
-1,9210145E-001	-5,647704502721007E-002	2,530999936061562E+000	1,000000000000000E+000
-1,9039384E-001	-4,893326896503669E-002	2,536699935917568E+000	1,000000000000000E+000
-1,8870993E-001	-4,146790907004641E-002	2,542299935776100E+000	1,000000000000000E+000
-1,8701102E-001	-3,558339998842425E-002	2,547999935632106E+000	1,000000000000000E+000
-1,8529283E-001	-3,039597464966270E-002	2,553699935488112E+000	1,000000000000000E+000
-1,8361422E-001	-2,465795407314753E-002	2,559299935346644E+000	1,000000000000000E+000
-1,8188417E-001	-1,984585657065985E-002	2,564999935202650E+000	1,000000000000000E+000
-1,8018995E-001	-1,541650820676022E-002	2,570699935058656E+000	1,000000000000000E+000
-1,7851050E-001	-1,057147781042050E-002	2,576299934917188E+000	1,000000000000000E+000
-1,7680557E-001	-6,084767570130739E-003	2,581999934773194E+000	1,000000000000000E+000
-1,7509039E-001	-2,402465080487445E-003	2,587699934629200E+000	1,000000000000000E+000
-1,7341438E-001	1,989005295914441E-003	2,593299934487732E+000	1,000000000000000E+000
-1,7171659E-001	5,662449071398720E-003	2,598999934343738E+000	1,000000000000000E+000
-1,7000274E-001	9,010695246211620E-003	2,604699934199743E+000	1,000000000000000E+000
-1,6833289E-001	1,292176016465457E-002	2,610299934058276E+000	1,000000000000000E+000
-1,6660953E-001	1,648306325758037E-002	2,615999933914281E+000	1,000000000000000E+000
-1,6491647E-001	1,961493740694747E-002	2,621699933770287E+000	1,000000000000000E+000
-1,6323900E-001	2,366517804976964E-002	2,627299933628819E+000	1,000000000000000E+000
-1,6151378E-001	2,652380713446367E-002	2,632999933484825E+000	1,000000000000000E+000
-1,5980831E-001	2,967589855203812E-002	2,638699933340831E+000	1,000000000000000E+000
-1,5813449E-001	3,306063689497374E-002	2,644299933199363E+000	1,000000000000000E+000
-1,5642957E-001	3,589766155584184E-002	2,649999933055369E+000	1,000000000000000E+000
-1,5469746E-001	3,910879863434724E-002	2,655699932911375E+000	1,000000000000000E+000
-1,5303202E-001	4,236849049252847E-002	2,661299932769907E+000	1,000000000000000E+000
-1,5132634E-001	4,520548922888484E-002	2,666999932625913E+000	1,000000000000000E+000
-1,5016425E-001	4,789138347041444E-002	2,670799932529917E+000	1,000000000000000E+000
-1,4983243E-001	4,702347889542580E-002	2,671999932499602E+000	2,000000000000000E+000
-1,4893399E-001	4,970244422966752E-002	2,674899932426342E+000	2,000000000000000E+000
-1,4721496E-001	5,293083240870244E-002	2,680599932282348E+000	2,000000000000000E+000
-1,4549990E-001	5,547296239604296E-002	2,686299932138354E+000	2,000000000000000E+000
-1,4380814E-001	5,838648021448600E-002	2,691899931996886E+000	2,000000000000000E+000
-1,4211181E-001	6,104941225958821E-002	2,697599931852892E+000	2,000000000000000E+000
-1,4040549E-001	6,371191322169700E-002	2,703299931708898E+000	2,000000000000000E+000
-1,3872787E-001	6,654842149415630E-002	2,708899931567430E+000	2,000000000000000E+000
-1,3700248E-001	6,973216901846757E-002	2,714599931423436E+000	2,000000000000000E+000
-1,3529243E-001	7,222427380097712E-002	2,720299931279442E+000	2,000000000000000E+000
-1,3362594E-001	7,541543509944870E-002	2,725899931137974E+000	2,000000000000000E+000
-1,3191997E-001	7,799894406959490E-002	2,731599930993980E+000	2,000000000000000E+000
-1,3020384E-001	8,083553737648208E-002	2,737299930849986E+000	2,000000000000000E+000
-1,2851129E-001	8,382040984158989E-002	2,742899930708518E+000	2,000000000000000E+000
-1,2682673E-001	8,659660249003753E-002	2,748599930564524E+000	2,000000000000000E+000
-1,2512311E-001	8,923981072115961E-002	2,754299930420530E+000	2,000000000000000E+000
-1,2343609E-001	9,223881428004937E-002	2,759899930279062E+000	2,000000000000000E+000
-1,2172282E-001	9,518984778137246E-002	2,765599930135068E+000	2,000000000000000E+000
-1,2002204E-001	9,793020449244616E-002	2,771299929991073E+000	2,000000000000000E+000
-1,1834656E-001	1,003611992868918E-001	2,776899929849606E+000	2,000000000000000E+000
-1,1664266E-001	1,038285886646078E-001	2,782599929705611E+000	2,000000000000000E+000
-1,1491387E-001	1,067936894870842E-001	2,788299929561617E+000	2,000000000000000E+000
-1,1324427E-001	1,094719466302733E-001	2,793899929420149E+000	2,000000000000000E+000
-1,1153670E-001	1,125986496139940E-001	2,799599929276155E+000	2,000000000000000E+000
-1,0982073E-001	1,151972510453088E-001	2,805299929132161E+000	2,000000000000000E+000
-1,0813920E-001	1,183424949979078E-001	2,810899928990693E+000	2,000000000000000E+000
-1,0643162E-001	1,213100207924769E-001	2,816599928846699E+000	2,000000000000000E+000
-1,0471398E-001	1,243715807919490E-001	2,822299928702705E+000	2,000000000000000E+000
-1,0303248E-001	1,274694800948194E-001	2,827899928561237E+000	2,000000000000000E+000
-1,0133339E-001	1,301754610114867E-001	2,833599928417243E+000	2,000000000000000E+000
-1,0022321E-001	1,319341337886204E-001	2,837299928323773E+000	2,000000000000000E+000
-9,9960014E-002	1,356074213981628E-001	2,838199928301037E+000	2,000000000000000E+000
-9,9826254E-002	1,313727796077728E-001	2,838599928290932E+000	2,000000000000000E+000
-1,0073316E-001	9,456878083249287E-002	2,841499928217672E+000	2,000000000000000E+000
-1,0242623E-001	6,479983179283810E-002	2,847199928073678E+000	2,000000000000000E+000
-1,0413978E-001	4,557237271338066E-002	2,852899927929684E+000	2,000000000000000E+000
-1,0583099E-001	3,099277441463162E-002	2,858499927788216E+000	2,000000000000000E+000
-1,0753226E-001	1,942793668226504E-002	2,864199927644222E+000	2,000000000000000E+000
-1,0924348E-001	9,257256302488637E-003	2,869899927500228E+000	2,000000000000000E+000
-1,1091084E-001	2,348191997422621E-004	2,875499927358760E+000	2,000000000000000E+000
-1,1263382E-001	-7,507316035711309E-003	2,881199927214766E+000	2,000000000000000E+000
-1,1433449E-001	-1,481388218814599E-002	2,886899927070772E+000	2,000000000000000E+000
-1,1603457E-001	-2,153461457540590E-002	2,892499926929304E+000	2,000000000000000E+000
-1,1775110E-001	-2,743473938524127E-002	2,898199926785310E+000	2,000000000000000E+000
-1,1943898E-001	-3,270333201039138E-002	2,903899926641316E+000	2,000000000000000E+000
-1,2111780E-001	-3,785992080385628E-002	2,909499926499848E+000	2,000000000000000E+000
-1,2282149E-001	-4,224788737617649E-002	2,915199926355854E+000	2,000000000000000E+000
-1,2454261E-001	-4,700316692227080E-002	2,920899926211860E+000	2,000000000000000E+000
-1,2621416E-001	-5,104705062748749E-002	2,926499926070392E+000	2,000000000000000E+000
-1,2790518E-001	-5,552696516287342E-002	2,932199925926398E+000	2,000000000000000E+000
-1,2962671E-001	-5,868620669773228E-002	2,937899925782403E+000	2,000000000000000E+000
-1,3128792E-001	-6,227299590305092E-002	2,943499925640936E+000	2,000000000000000E+000
-1,3300781E-001	-6,593894327418703E-002	2,949199925496941E+000	2,000000000000000E+000
-1,3472247E-001	-6,900997963249944E-002	2,954899925352947E+000	2,000000000000000E+000
-1,3639550E-001	-7,264057005711377E-002	2,960499925211479E+000	2,000000000000000E+000
-1,3810888E-001	-7,519467794666579E-002	2,966199925067485E+000	2,000000000000000E+000
-1,3981903E-001	-7,806420850910278E-002	2,971899924923491E+000	2,000000000000000E+000
-1,4150472E-001	-8,085055848533984E-002	2,977499924782023E+000	2,000000000000000E+000
-1,4321187E-001	-8,305794505856889E-002	2,983199924638029E+000	2,000000000000000E+000
-1,4491445E-001	-8,558113951315782E-002	2,988899924494035E+000	2,000000000000000E+000
-1,4660366E-001	-8,814989740494608E-002	2,994499924352567E+000	2,000000000000000E+000
-1,4832762E-001	-9,050450234197038E-002	3,000199924208573E+000	2,000000000000000E+000
-1,5000212E-001	-9,269958472353990E-002	3,005799924067105E+000	2,000000000000000E+000
-1,5173215E-001	-9,515957650782414E-002	3,011499923923111E+000	2,000000000000000E+000
-1,5340741E-001	-9,743514314942781E-002	3,017099923781643E+000	2,000000000000000E+000
-1,5510418E-001	-9,901632005326411E-002	3,022799923637649E+000	2,000000000000000E+000
-1,5682599E-001	-1,012162171380755E-001	3,028499923493655E+000	2,000000000000000E+000
-1,5851742E-001	-1,037496511373857E-001	3,034099923352187E+000	2,000000000000000E+000
-1,6020823E-001	-1,049288110852316E-001	3,039799923208193E+000	2,000000000000000E+000
-1,6191284E-001	-1,072170456916663E-001	3,045499923064199E+000	2,000000000000000E+000
-1,6359337E-001	-1,092481725041852E-001	3,051099922922731E+000	2,000000000000000E+000
-1,6530487E-001	-1,107694035459781E-001	3,056799922778737E+000	2,000000000000000E+000
-1,6702576E-001	-1,128356724549557E-001	3,062499922634743E+000	2,000000000000000E+000
-1,6869475E-001	-1,144591605126926E-001	3,068099922493275E+000	2,000000000000000E+000
-1,7039229E-001	-1,161837500319679E-001	3,073799922349281E+000	2,000000000000000E+000
-1,7210969E-001	-1,178099860499728E-001	3,079499922205287E+000	2,000000000000000E+000
-1,7378619E-001	-1,200283272455971E-001	3,085099922063819E+000	2,000000000000000E+000
-1,7551823E-001	-1,217279491090889E-001	3,090799921919825E+000	2,000000000000000E+000
-1,7720270E-001	-1,226345307125782E-001	3,096499921775830E+000	2,000000000000000E+000
-1,7887835E-001	-1,242375324245244E-001	3,102099921634363E+000	2,000000000000000E+000
-1,8059964E-001	-1,264893450307469E-001	3,107799921490368E+000	2,000000000000000E+000
-1,8229920E-001	-1,279020345483095E-001	3,113499921346374E+000	2,000000000000000E+000
-1,8399182E-001	-1,293489065929958E-001	3,119099921204906E+000	2,000000000000000E+000
-1,8569581E-001	-1,310600024931200E-001	3,124799921060912E+000	2,000000000000000E+000
-1,8740319E-001	-1,331017213896204E-001	3,130499920916918E+000	2,000000000000000E+000
-1,8909304E-001	-1,345613038041240E-001	3,136099920775450E+000	2,000000000000000E+000
-1,9080855E-001	-1,358147902557478E-001	3,141799920631456E+000	2,000000000000000E+000
-1,9252032E-001	-1,372353253445233E-001	3,147499920487462E+000	2,000000000000000E+000
-1,9419852E-001	-1,391004308086984E-001	3,153099920345994E+000	2,000000000000000E+000
-1,9592290E-001	-1,408821181746758E-001	3,158799920202000E+000	2,000000000000000E+000
-1,9761193E-001	-1,420768327144388E-001	3,164499920058006E+000	2,000000000000000E+000
-1,9908376E-001	-1,433871679495493E-001	3,169399919934222E+000	2,000000000000000E+000
-1,9976215E-001	-1,420089900493622E-001	3,171799919873592E+000	2,000000000000000E+000
-1,9982331E-001	-1,415130496025085E-001	3,171999919868540E+000	2,000000000000000E+000
-1,9982332E-001	-1,317466795444489E-001	3,172399919858435E+000	2,000000000000000E+000
-1,9892502E-001	-1,093873524212672E-001	3,175299919785175E+000	2,000000000000000E+000
-1,9721684E-001	-8,662936347648653E-002	3,180999919641181E+000	2,000000000000000E+000
-1,9551076E-001	-7,313510668609513E-002	3,186699919497187E+000	2,000000000000000E+000
-1,9382074E-001	-6,303317230884664E-002	3,192299919355719E+000	2,000000000000000E+000
-1,9210309E-001	-5,425188263940900E-002	3,197999919211725E+000	2,000000000000000E+000
-1,9040331E-001	-4,638853071217586E-002	3,203699919067731E+000	2,000000000000000E+000
-1,8871705E-001	-3,975964456387560E-002	3,209299918926263E+000	2,000000000000000E+000
-1,8699175E-001	-3,393342047806625E-002	3,214999918782269E+000	2,000000000000000E+000
-1,8529657E-001	-2,850684972711148E-002	3,220699918638275E+000	2,000000000000000E+000
-1,8361938E-001	-2,282676350794777E-002	3,226299918496807E+000	2,000000000000000E+000
-1,8189925E-001	-1,831032658027149E-002	3,231999918352813E+000	2,000000000000000E+000
-1,8018310E-001	-1,326739958083764E-002	3,237699918208818E+000	2,000000000000000E+000
-1,7851080E-001	-8,790445401380610E-003	3,243299918067351E+000	2,000000000000000E+000
-1,7681381E-001	-5,020239782197636E-003	3,248999917923356E+000	2,000000000000000E+000
-1,7510413E-001	-5,769245138604155E-004	3,254699917779362E+000	2,000000000000000E+000
-1,7342028E-001	3,517118512986730E-003	3,260299917637894E+000	2,000000000000000E+000
-1,7170270E-001	7,319766247676940E-003	3,265999917493900E+000	2,000000000000000E+000
-1,7001252E-001	1,060451116124268E-002	3,271699917349906E+000	2,000000000000000E+000
-1,6831388E-001	1,463143866008249E-002	3,277299917208438E+000	2,000000000000000E+000
-1,6660093E-001	1,782931196318651E-002	3,282999917064444E+000	2,000000000000000E+000
-1,6491136E-001	2,078062646938236E-002	3,288699916920450E+000	2,000000000000000E+000
-1,6322617E-001	2,465000971224759E-002	3,294299916778982E+000	2,000000000000000E+000
-1,6151196E-001	2,803586197730440E-002	3,299999916634988E+000	2,000000000000000E+000
-1,5979469E-001	3,091506345595862E-002	3,305699916490994E+000	2,000000000000000E+000
-1,5811095E-001	3,419594917243207E-002	3,311299916349526E+000	2,000000000000000E+000
-1,5640318E-001	3,761880598638256E-002	3,316999916205532E+000	2,000000000000000E+000
-1,5469521E-001	4,056131880955696E-002	3,322699916061538E+000	2,000000000000000E+000
-1,5302651E-001	4,347907306429172E-002	3,328299915920070E+000	2,000000000000000E+000
-1,5131070E-001	4,645196227479931E-002	3,333999915776076E+000	2,000000000000000E+000
-1,5017737E-001	4,963674021018958E-002	3,337799915680080E+000	2,000000000000000E+000
-1,4982478E-001	4,645123332738876E-002	3,338999915649765E+000	3,000000000000000E+000
-1,4892063E-001	5,124680809536541E-002	3,341899915576505E+000	3,000000000000000E+000
-1,4721909E-001	5,384202920770209E-002	3,347599915432511E+000	3,000000000000000E+000
-1,4550126E-001	5,657789518779649E-002	3,353299915288517E+000	3,000000000000000E+000
-1,4381422E-001	5,991035815316514E-002	3,358899915147049E+000	3,000000000000000E+000
-1,4210792E-001	6,242647661537615E-002	3,364599915003055E+000	3,000000000000000E+000
-1,4039083E-001	6,523366832859923E-002	3,370299914859061E+000	3,000000000000000E+000
-1,3872512E-001	6,773319225262509E-002	3,375899914717593E+000	3,000000000000000E+000
-1,3701065E-001	7,088693507830612E-002	3,381599914573599E+000	3,000000000000000E+000
-1,3530314E-001	7,374037580033188E-002	3,387299914429605E+000	3,000000000000000E+000
-1,3361661E-001	7,656841108325407E-002	3,392899914288137E+000	3,000000000000000E+000
-1,3191321E-001	7,931291160695375E-002	3,398599914144143E+000	3,000000000000000E+000
-1,3021041E-001	8,183874145227807E-002	3,404299914000148E+000	3,000000000000000E+000
-1,2852544E-001	8,513092942356942E-002	3,409899913858681E+000	3,000000000000000E+000
-1,2680717E-001	8,770001056836985E-002	3,415599913714686E+000	3,000000000000000E+000
-1,2512051E-001	9,054820695719545E-002	3,421299913570692E+000	3,000000000000000E+000
-1,2343785E-001	9,347232871934708E-002	3,426899913429224E+000	3,000000000000000E+000
-1,2172657E-001	9,569313520030587E-002	3,432599913285230E+000	3,000000000000000E+000
-1,2002167E-001	9,873841424619245E-002	3,438299913141236E+000	3,000000000000000E+000
-1,1836176E-001	1,020355526895775E-001	3,443899912999768E+000	3,000000000000000E+000
-1,1663885E-001	1,047882078665474E-001	3,449599912855774E+000	3,000000000000000E+000
-1,1492124E-001	1,075602193692859E-001	3,455299912711780E+000	3,000000000000000E+000
-1,1323783E-001	1,105740565830347E-001	3,460899912570312E+000	3,000000000000000E+000
-1,1152912E-001	1,138509921819120E-001	3,466599912426318E+000	3,000000000000000E+000
-1,0982045E-001	1,167536269602825E-001	3,472299912282324E+000	3,000000000000000E+000
-1,0814644E-001	1,196233365755885E-001	3,477899912140856E+000	3,000000000000000E+000
-1,0641833E-001	1,224508509168609E-001	3,483599911996862E+000	3,000000000000000E+000
-1,0471024E-001	1,254842757437109E-001	3,489299911852868E+000	3,000000000000000E+000
-1,0303134E-001	1,286733268492819E-001	3,494899911711400E+000	3,000000000000000E+000
-1,0132656E-001	1,316816330469852E-001	3,500599911567406E+000	3,000000000000000E+000
-1,0023959E-001	1,332666431595244E-001	3,504299911473936E+000	3,000000000000000E+000
-9,9986777E-002	1,384686529636383E-001	3,505199911451200E+000	3,000000000000000E+000
-9,9830076E-002	1,333947330713272E-001	3,505599911441095E+000	3,000000000000000E+000
-1,0072814E-001	9,611031675605641E-002	3,508499911367835E+000	3,000000000000000E+000
-1,0241763E-001	6,578145855914630E-002	3,514199911223841E+000	3,000000000000000E+000
-1,0412003E-001	4,707434606448446E-002	3,519899911079847E+000	3,000000000000000E+000
-1,0580983E-001	3,241350093944845E-002	3,525499910938379E+000	3,000000000000000E+000
-1,0752999E-001	2,052767938522064E-002	3,531199910794385E+000	3,000000000000000E+000
-1,0924779E-001	1,032262591750763E-002	3,536899910650391E+000	3,000000000000000E+000
-1,1091770E-001	1,574302622372077E-003	3,542499910508923E+000	3,000000000000000E+000
-1,1264256E-001	-6,563107173948202E-003	3,548199910364929E+000	3,000000000000000E+000
-1,1434257E-001	-1,346238831481766E-002	3,553899910220935E+000	3,000000000000000E+000
-1,1601615E-001	-2,003758626408481E-002	3,559499910079467E+000	3,000000000000000E+000
-1,1772992E-001	-2,595276613213235E-002	3,565199909935473E+000	3,000000000000000E+000
-1,1942759E-001	-3,141895357381413E-002	3,570899909791478E+000	3,000000000000000E+000
-1,2111688E-001	-3,667374354659436E-002	3,576499909650011E+000	3,000000000000000E+000
-1,2282956E-001	-4,138291186357523E-002	3,582199909506016E+000	3,000000000000000E+000
-1,2454468E-001	-4,616386798443257E-002	3,587899909362022E+000	3,000000000000000E+000
-1,2621322E-001	-5,015900834567011E-002	3,593499909220554E+000	3,000000000000000E+000
-1,2789282E-001	-5,381388754904037E-002	3,599199909076560E+000	3,000000000000000E+000
-1,2961066E-001	-5,777909011548776E-002	3,604899908932566E+000	3,000000000000000E+000
-1,3129364E-001	-6,149728311127661E-002	3,610499908791098E+000	3,000000000000000E+000
-1,3300665E-001	-6,469833693643934E-002	3,616199908647104E+000	3,000000000000000E+000
-1,3470542E-001	-6,811416101845669E-002	3,621899908503110E+000	3,000000000000000E+000
-1,3639231E-001	-7,108985527318279E-002	3,627499908361642E+000	3,000000000000000E+000
-1,3811414E-001	-7,407659300420508E-002	3,633199908217648E+000	3,000000000000000E+000
-1,3982612E-001	-7,642235429537081E-002	3,638899908073654E+000	3,000000000000000E+000
-1,4148907E-001	-7,924473552298505E-002	3,644499907932186E+000	3,000000000000000E+000
-1,4319320E-001	-8,220764780092438E-002	3,650199907788192E+000	3,000000000000000E+000
-1,4492951E-001	-8,468461532525118E-002	3,655899907644198E+000	3,000000000000000E+000
-1,4660211E-001	-8,693404466881730E-002	3,661499907502730E+000	3,000000000000000E+000
-1,4830688E-001	-8,937762005930688E-002	3,667199907358736E+000	3,000000000000000E+000
-1,4999229E-001	-9,198427472550130E-002	3,672799907217268E+000	3,000000000000000E+000
-1,5171736E-001	-9,385471266728884E-002	3,678499907073274E+000	3,000000000000000E+000
-1,5341763E-001	-9,612038837480597E-002	3,684099906931806E+000	3,000000000000000E+000
-1,5510391E-001	-9,835529904264051E-002	3,689799906787812E+000	3,000000000000000E+000
-1,5681808E-001	-9,964783215750850E-002	3,695499906643818E+000	3,000000000000000E+000
-1,5851061E-001	-1,021508887686112E-001	3,701099906502350E+000	3,000000000000000E+000
-1,6020221E-001	-1,041394047626034E-001	3,706799906358356E+000	3,000000000000000E+000
-1,6190033E-001	-1,054579138327867E-001	3,712499906214362E+000	3,000000000000000E+000
-1,6360334E-001	-1,077440805599541E-001	3,718099906072894E+000	3,000000000000000E+000
-1,6531809E-001	-1,097870443896118E-001	3,723799905928900E+000	3,000000000000000E+000
-1,6701633E-001	-1,113223928011768E-001	3,729499905784905E+000	3,000000000000000E+000
-1,6870387E-001	-1,133443388092994E-001	3,735099905643438E+000	3,000000000000000E+000
-1,7039829E-001	-1,151962558444488E-001	3,740799905499443E+000	3,000000000000000E+000
-1,7210157E-001	-1,163073069862246E-001	3,746499905355449E+000	3,000000000000000E+000
-1,7380369E-001	-1,185291831654332E-001	3,752099905213981E+000	3,000000000000000E+000
-1,7550653E-001	-1,201058463674809E-001	3,757799905069987E+000	3,000000000000000E+000
-1,7720623E-001	-1,211904841060181E-001	3,763499904925993E+000	3,000000000000000E+000
-1,7888597E-001	-1,236002858942680E-001	3,769099904784525E+000	3,000000000000000E+000
-1,8059017E-001	-1,249237294093918E-001	3,774799904640531E+000	3,000000000000000E+000
-1,8230726E-001	-1,261746998309343E-001	3,780499904496537E+000	3,000000000000000E+000
-1,8399054E-001	-1,282227779237368E-001	3,786099904355069E+000	3,000000000000000E+000
-1,8571153E-001	-1,297181447320885E-001	3,791799904211075E+000	3,000000000000000E+000
-1,8743283E-001	-1,311694999630735E-001	3,797499904067081E+000	3,000000000000000E+000
-1,8910360E-001	-1,331801458926982E-001	3,803099903925613E+000	3,000000000000000E+000
-1,9080339E-001	-1,344237756823600E-001	3,808799903781619E+000	3,000000000000000E+000
-1,9251974E-001	-1,358760608833376E-001	3,814499903637625E+000	3,000000000000000E+000
-1,9419934E-001	-1,375892763031445E-001	3,820099903496157E+000	3,000000000000000E+000
-1,9592084E-001	-1,389188658218838E-001	3,825799903352163E+000	3,000000000000000E+000
-1,9763476E-001	-1,406356197549026E-001	3,831499903208169E+000	3,000000000000000E+000
-1,9908518E-001	-1,419231712869076E-001	3,836399903084384E+000	3,000000000000000E+000
-1,9978891E-001	-1,399870514869690E-001	3,838799903023755E+000	3,000000000000000E+000
-1,9992268E-001	-1,400251835584641E-001	3,838999903018703E+000	3,000000000000000E+000
-1,9979273E-001	-1,290761977434158E-001	3,839399903008598E+000	3,000000000000000E+000
-1,9893162E-001	-1,080959092031226E-001	3,842299902935338E+000	3,000000000000000E+000
-1,9720750E-001	-8,556923163996499E-002	3,847999902791344E+000	3,000000000000000E+000
-1,9550455E-001	-7,192067017307688E-002	3,853699902647350E+000	3,000000000000000E+000
-1,9381519E-001	-6,129805883096251E-002	3,859299902505882E+000	3,000000000000000E+000
-1,9209631E-001	-5,311912468459912E-002	3,864999902361888E+000	3,000000000000000E+000
-1,9039282E-001	-4,544255861185729E-002	3,870699902217893E+000	3,000000000000000E+000
-1,8873426E-001	-3,890056502819358E-002	3,876299902076426E+000	3,000000000000000E+000
-1,8700403E-001	-3,238614913845161E-002	3,881999901932431E+000	3,000000000000000E+000
-1,8530592E-001	-2,731713973898181E-002	3,887699901788437E+000	3,000000000000000E+000
-1,8361321E-001	-2,214359931652626E-002	3,893299901646969E+000	3,000000000000000E+000
-1,8190953E-001	-1,708732912790689E-002	3,898999901502975E+000	3,000000000000000E+000
-1,8017773E-001	-1,229175317961628E-002	3,904699901358981E+000	3,000000000000000E+000
-1,7850618E-001	-7,782299353796845E-003	3,910299901217513E+000	3,000000000000000E+000
-1,7682393E-001	-3,828791127532961E-003	3,915999901073519E+000	3,000000000000000E+000
-1,7510879E-001	-1,233652127249727E-004	3,921699900929525E+000	3,000000000000000E+000
-1,7342146E-001	4,186153360883023E-003	3,927299900788057E+000	3,000000000000000E+000
-1,7169623E-001	7,933831177174833E-003	3,932999900644063E+000	3,000000000000000E+000
-1,6999552E-001	1,136750712268825E-002	3,938699900500069E+000	3,000000000000000E+000
-1,6831106E-001	1,555339283253565E-002	3,944299900358601E+000	3,000000000000000E+000
-1,6660425E-001	1,866200620294806E-002	3,949999900214607E+000	3,000000000000000E+000
-1,6490549E-001	2,178311961041696E-002	3,955699900070613E+000	3,000000000000000E+000
-1,6321789E-001	2,549213201955025E-002	3,961299899929145E+000	3,000000000000000E+000
-1,6152424E-001	2,857949590627238E-002	3,966999899785151E+000	3,000000000000000E+000
-1,5980434E-001	3,164273396248096E-002	3,972699899641157E+000	3,000000000000000E+000
-1,5813266E-001	3,475265223581421E-002	3,978299899499689E+000	3,000000000000000E+000
-1,5641923E-001	3,804946046581714E-002	3,983999899355695E+000	3,000000000000000E+000
-1,5469314E-001	4,061359876046755E-002	3,989699899211701E+000	3,000000000000000E+000
-1,5302472E-001	4,442646375752764E-002	3,995299899070233E+000	3,000000000000000E+000
-1,5132290E-001	4,745853210232998E-002	4,000999898926239E+000	3,000000000000000E+000
-1,5021944E-001	4,949685989655939E-002	4,004599898835295E+000	3,000000000000000E+000
-1,4992797E-001	4,782462865114212E-002	4,005599898810033E+000	3,000000000000000E+000
-1,4985919E-001	5,492049828171730E-002	4,005799898804980E+000	3,000000000000000E+000