File: ECSA/ECSA header/4 CV for ECSA_05_CV_C01.txt
EC-Lab ASCII FILE
Nb header lines : 61

Cyclic Voltammetry

Run on channel : 1 (SN 1153)
User :
Electrode connection : standard
Potential control : Ewe
Ewe ctrl range : min = -2,50 V, max = 2,50 V
Ewe,I filtering : 50 kHz
Safety Limits :
	Do not start on E overload
Channel : Grounded
Acquisition started on : 12/20/2024 11:49:19.340
Technique started on : 12/20/2024 11:49:26.551
Loaded Setting File :  C:\Users\lab10\Desktop\Andraž Stariha\T20-6_ED-PP-Fe-1-1.5V-50-10-60m\6 CV for ECSA.mps
Saved on :
	File : 4 CV for ECSA_05_CV_C01.mpr
	Directory : C:\Users\lab10\Desktop\Andraž Stariha\IMT16-Fe-3_ED-PP-Co-1-1.5V-50-10-60m\
	Host : 178.172.20.122
Device : SP-200 (SN 0067)
Address : USB
EC-Lab for windows v11.52 (software)
Internet server v11.52 (firmware)
Command interpretor v11.52 (firmware)
Electrode material :
Initial state :
Electrolyte :
Comments :
Cable : standard
Reference electrode : SCE Saturated Calomel Electrode (0,241 V)
Electrode surface area : 0,001 cm²
Characteristic mass : 0,001 g
Equivalent Weight : 0,000 g/eq.
Density : 0,000 g/cm3
Volume (V) : 0,001 cm³
Cycle Definition : Charge/Discharge alternance
Ei (V)              -0,150
vs.                 Ref
dE/dt               100,000
dE/dt unit          mV/s
E1 (V)              0,050
vs.                 Ei
Step percent        85
N                   17
E range min (V)     -2,500
E range max (V)     2,500
I Range             10 mA
I Range min         Unset
I Range max         Unset
I Range init        Unset
Bandwidth           8
E2 (V)              -0,050
vs.                 Ei
nc cycles           2
Reverse Scan        1
Ef (V)              0,000
vs.                 Ei

Ewe/V	<I>/mA	time/s	cycle number
-1,4995091E-001	3,863051533699036E-002	7,210599817844923E+000	1,000000000000000E+000
-1,4901805E-001	1,820932070313580E-002	7,219599817617564E+000	1,000000000000000E+000
-1,4732613E-001	1,651403594405565E-002	7,236599817188107E+000	1,000000000000000E+000
-1,4563124E-001	1,831661588585126E-002	7,253599816758651E+000	1,000000000000000E+000
-1,4391685E-001	2,061693315226887E-002	7,270599816329195E+000	1,000000000000000E+000
-1,4221121E-001	2,252144488647900E-002	7,287599815899739E+000	1,000000000000000E+000
-1,4051497E-001	2,463399215139361E-002	7,304599815470283E+000	1,000000000000000E+000
-1,3881014E-001	2,640944965332898E-002	7,321599815040827E+000	1,000000000000000E+000
-1,3711524E-001	2,842066224820894E-002	7,338599814611371E+000	1,000000000000000E+000
-1,3540517E-001	3,026377701189642E-002	7,355599814181915E+000	1,000000000000000E+000
-1,3371982E-001	3,210331162335933E-002	7,372599813752458E+000	1,000000000000000E+000
-1,3201690E-001	3,389456592776718E-002	7,389599813323002E+000	1,000000000000000E+000
-1,3032094E-001	3,562650914682325E-002	7,406599812893546E+000	1,000000000000000E+000
-1,2862314E-001	3,736292214671283E-002	7,423599812464090E+000	1,000000000000000E+000
-1,2692095E-001	3,914553474533056E-002	7,440599812034634E+000	1,000000000000000E+000
-1,2523942E-001	4,088284170938994E-002	7,457599811605178E+000	1,000000000000000E+000
-1,2353639E-001	4,260644003625214E-002	7,474599811175722E+000	1,000000000000000E+000
-1,2183670E-001	4,419144859275548E-002	7,491599810746266E+000	1,000000000000000E+000
-1,2013940E-001	4,595915811114537E-002	7,508599810316809E+000	1,000000000000000E+000
-1,1844293E-001	4,758708303779746E-002	7,525599809887353E+000	1,000000000000000E+000
-1,1673406E-001	4,929100846311496E-002	7,542599809457897E+000	1,000000000000000E+000
-1,1504070E-001	5,099106269335613E-002	7,559599809028441E+000	1,000000000000000E+000
-1,1333419E-001	5,269200951806852E-002	7,576599808598985E+000	1,000000000000000E+000
-1,1163391E-001	5,438371571108325E-002	7,593599808169529E+000	1,000000000000000E+000
-1,0994212E-001	5,613920313044218E-002	7,610599807740073E+000	1,000000000000000E+000
-1,0823265E-001	5,779991321105667E-002	7,627599807310617E+000	1,000000000000000E+000
-1,0653807E-001	5,952202274056639E-002	7,644599806881160E+000	1,000000000000000E+000
-1,0483100E-001	6,110851806079198E-002	7,661599806451704E+000	1,000000000000000E+000
-1,0312833E-001	6,298739282283394E-002	7,678599806022248E+000	1,000000000000000E+000
-1,0143677E-001	6,447017134632921E-002	7,695599805592792E+000	1,000000000000000E+000
-1,0029522E-001	6,553663529921328E-002	7,707099805302278E+000	1,000000000000000E+000
-9,9948555E-002	6,614608690142632E-002	7,710599805213860E+000	1,000000000000000E+000
-9,9807143E-002	6,770069152116776E-002	7,710999805203755E+000	1,000000000000000E+000
-1,0072983E-001	4,507068421116878E-002	7,719999804976396E+000	1,000000000000000E+000
-1,0243441E-001	2,801293423544854E-002	7,736999804546940E+000	1,000000000000000E+000
-1,0412381E-001	1,796134640699176E-002	7,753999804117484E+000	1,000000000000000E+000
-1,0582351E-001	1,010933545831003E-002	7,770999803688028E+000	1,000000000000000E+000
-1,0754170E-001	3,907602306696848E-003	7,787999803258572E+000	1,000000000000000E+000
-1,0922896E-001	-1,526067508443417E-003	7,804999802829116E+000	1,000000000000000E+000
-1,1091576E-001	-6,273338490245778E-003	7,821999802399660E+000	1,000000000000000E+000
-1,1265486E-001	-1,048055076853410E-002	7,838999801970203E+000	1,000000000000000E+000
-1,1433471E-001	-1,416588539950672E-002	7,855999801540747E+000	1,000000000000000E+000
-1,1603236E-001	-1,759549904363655E-002	7,872999801111291E+000	1,000000000000000E+000
-1,1774436E-001	-2,069606664008453E-002	7,889999800681835E+000	1,000000000000000E+000
-1,1944321E-001	-2,366042888024811E-002	7,906999800252379E+000	1,000000000000000E+000
-1,2114898E-001	-2,625670295947197E-002	7,923999799822923E+000	1,000000000000000E+000
-1,2283673E-001	-2,867891942878464E-002	7,940999799393467E+000	1,000000000000000E+000
-1,2453678E-001	-3,105464326381491E-002	7,957999798964011E+000	1,000000000000000E+000
-1,2622894E-001	-3,321786114065595E-002	7,974999798534554E+000	1,000000000000000E+000
-1,2792706E-001	-3,522400398287562E-002	7,991999798105098E+000	1,000000000000000E+000
-1,2961374E-001	-3,713835082089623E-002	8,008999797675642E+000	1,000000000000000E+000
-1,3130304E-001	-3,905716856024799E-002	8,025999797246186E+000	1,000000000000000E+000
-1,3300581E-001	-4,069135303507165E-002	8,042999796816730E+000	1,000000000000000E+000
-1,3471219E-001	-4,246442652402027E-002	8,059999796387274E+000	1,000000000000000E+000
-1,3643421E-001	-4,404704859189179E-002	8,076999795957818E+000	1,000000000000000E+000
-1,3811289E-001	-4,560851112182729E-002	8,093999795528362E+000	1,000000000000000E+000
-1,3981867E-001	-4,723882204598306E-002	8,110999795098905E+000	1,000000000000000E+000
-1,4151633E-001	-4,869983949174606E-002	8,127999794669449E+000	1,000000000000000E+000
-1,4321840E-001	-5,011347079016548E-002	8,144999794239993E+000	1,000000000000000E+000
-1,4492474E-001	-5,147017368290108E-002	8,161999793810537E+000	1,000000000000000E+000
-1,4662099E-001	-5,275862739654258E-002	8,178999793381081E+000	1,000000000000000E+000
-1,4832796E-001	-5,421278933499685E-002	8,195999792951625E+000	1,000000000000000E+000
-1,5002052E-001	-5,530864353324098E-002	8,212899792524695E+000	1,000000000000000E+000
-1,5171684E-001	-5,666540735001013E-002	8,229799792097765E+000	1,000000000000000E+000
-1,5342773E-001	-5,778665762409202E-002	8,246799791668309E+000	1,000000000000000E+000
-1,5512362E-001	-5,892936404416105E-002	8,263799791238853E+000	1,000000000000000E+000
-1,5682819E-001	-5,996447546749528E-002	8,280799790809397E+000	1,000000000000000E+000
-1,5851961E-001	-6,107469832932089E-002	8,297799790379941E+000	1,000000000000000E+000
-1,6022025E-001	-6,222574996354524E-002	8,314799789950484E+000	1,000000000000000E+000
-1,6191243E-001	-6,337501879170260E-002	8,331799789521028E+000	1,000000000000000E+000
-1,6362120E-001	-6,438658200931902E-002	8,348799789091572E+000	1,000000000000000E+000
-1,6532710E-001	-6,536268437048398E-002	8,365799788662116E+000	1,000000000000000E+000
-1,6702618E-001	-6,630450610828109E-002	8,382799788232660E+000	1,000000000000000E+000
-1,6871463E-001	-6,755540709855246E-002	8,399799787803204E+000	1,000000000000000E+000
-1,7040156E-001	-6,847338704756134E-002	8,416799787373748E+000	1,000000000000000E+000
-1,7210256E-001	-6,942713472744799E-002	8,433799786944292E+000	1,000000000000000E+000
-1,7381345E-001	-7,050009333033813E-002	8,450799786514835E+000	1,000000000000000E+000
-1,7551136E-001	-7,153699535410828E-002	8,467799786085379E+000	1,000000000000000E+000
-1,7722036E-001	-7,241920913293098E-002	8,484799785655923E+000	1,000000000000000E+000
-1,7892805E-001	-7,342690826408194E-002	8,501799785226467E+000	1,000000000000000E+000
-1,8061386E-001	-7,421523417724502E-002	8,518799784797011E+000	1,000000000000000E+000
-1,8232480E-001	-7,536449835970349E-002	8,535799784367555E+000	1,000000000000000E+000
-1,8403092E-001	-7,630453375168134E-002	8,552799783938099E+000	1,000000000000000E+000
-1,8573837E-001	-7,731014058663277E-002	8,569799783508643E+000	1,000000000000000E+000
-1,8744010E-001	-7,808326617305239E-002	8,586799783079186E+000	1,000000000000000E+000
-1,8911862E-001	-7,904148613670192E-002	8,603799782649730E+000	1,000000000000000E+000
-1,9081296E-001	-7,999195098818712E-002	8,620799782220274E+000	1,000000000000000E+000
-1,9251539E-001	-8,096567002576238E-002	8,637799781790818E+000	1,000000000000000E+000
-1,9422272E-001	-8,178261178909430E-002	8,654799781361362E+000	1,000000000000000E+000
-1,9592896E-001	-8,278463753958887E-002	8,671799780931906E+000	1,000000000000000E+000
-1,9763248E-001	-8,374643260321984E-002	8,688799780502450E+000	1,000000000000000E+000
-1,9916424E-001	-8,468958804419680E-002	8,704299780110887E+000	1,000000000000000E+000
-1,9996855E-001	-8,657725900411606E-002	8,711199779936578E+000	1,000000000000000E+000
-1,9981949E-001	-8,116952516138554E-002	8,712199779911316E+000	1,000000000000000E+000
-1,9892286E-001	-6,734051450985068E-002	8,721199779683957E+000	1,000000000000000E+000
-1,9721650E-001	-5,603236107526743E-002	8,738199779254501E+000	1,000000000000000E+000
-1,9553030E-001	-4,881131014735718E-002	8,755199778825045E+000	1,000000000000000E+000
-1,9380791E-001	-4,333412328378461E-002	8,772199778395589E+000	1,000000000000000E+000
-1,9210164E-001	-3,861129431425059E-002	8,789199777966132E+000	1,000000000000000E+000
-1,9040793E-001	-3,443478144072276E-002	8,806199777536676E+000	1,000000000000000E+000
-1,8871252E-001	-3,048626968029577E-002	8,823199777107220E+000	1,000000000000000E+000
-1,8700546E-001	-2,714189949711004E-002	8,840199776677764E+000	1,000000000000000E+000
-1,8530613E-001	-2,380021240878694E-002	8,857199776248308E+000	1,000000000000000E+000
-1,8360250E-001	-2,091572676181380E-002	8,874199775818852E+000	1,000000000000000E+000
-1,8190128E-001	-1,793527078916662E-002	8,891199775389396E+000	1,000000000000000E+000
-1,8019691E-001	-1,536760611679713E-002	8,908199774959940E+000	1,000000000000000E+000
-1,7849509E-001	-1,262051887579214E-002	8,925199774530483E+000	1,000000000000000E+000
-1,7681283E-001	-1,030351237432114E-002	8,942199774101027E+000	1,000000000000000E+000
-1,7510827E-001	-7,739126881233446E-003	8,959199773671571E+000	1,000000000000000E+000
-1,7340605E-001	-5,397084433525351E-003	8,976199773242115E+000	1,000000000000000E+000
-1,7169848E-001	-3,228802041348899E-003	8,993199772812659E+000	1,000000000000000E+000
-1,7001063E-001	-1,163047825166071E-003	9,010199772383203E+000	1,000000000000000E+000
-1,6830188E-001	1,057689921964318E-003	9,027199771953747E+000	1,000000000000000E+000
-1,6660529E-001	3,017638135844457E-003	9,044199771524291E+000	1,000000000000000E+000
-1,6492519E-001	5,004410150831980E-003	9,061199771094834E+000	1,000000000000000E+000
-1,6322276E-001	6,987605697986563E-003	9,078199770665378E+000	1,000000000000000E+000
-1,6151197E-001	8,943082941186772E-003	9,095199770235922E+000	1,000000000000000E+000
-1,5980966E-001	1,078858150185630E-002	9,112199769806466E+000	1,000000000000000E+000
-1,5811904E-001	1,258460442522853E-002	9,129199769377010E+000	1,000000000000000E+000
-1,5642329E-001	1,441907507842190E-002	9,146199768947554E+000	1,000000000000000E+000
-1,5471810E-001	1,617515944326442E-002	9,163199768518098E+000	1,000000000000000E+000
-1,5301615E-001	1,793005059607822E-002	9,180199768088642E+000	1,000000000000000E+000
-1,5131241E-001	1,964083329130520E-002	9,197199767659185E+000	1,000000000000000E+000
-1,5017910E-001	2,122401047187550E-002	9,208499767373723E+000	1,000000000000000E+000
-1,4982097E-001	2,146308636292815E-002	9,211999767285306E+000	2,000000000000000E+000
-1,4892490E-001	2,209047099313477E-002	9,220999767057947E+000	2,000000000000000E+000
-1,4721483E-001	2,383910461776412E-002	9,237999766628491E+000	2,000000000000000E+000
-1,4550990E-001	2,534185005697520E-002	9,254999766199035E+000	2,000000000000000E+000
-1,4381045E-001	2,700524276951910E-002	9,271999765769579E+000	2,000000000000000E+000
-1,4210871E-001	2,875268529896868E-002	9,288999765340122E+000	2,000000000000000E+000
-1,4040951E-001	3,035527632164313E-002	9,305999764910666E+000	2,000000000000000E+000
-1,3872023E-001	3,196054850923269E-002	9,322999764481210E+000	2,000000000000000E+000
-1,3700774E-001	3,365106374076288E-002	9,339999764051754E+000	2,000000000000000E+000
-1,3531235E-001	3,510731418464277E-002	9,356999763622298E+000	2,000000000000000E+000
-1,3359869E-001	3,673702911692112E-002	9,373999763192842E+000	2,000000000000000E+000
-1,3189591E-001	3,831845614695362E-002	9,390999762763386E+000	2,000000000000000E+000
-1,3020423E-001	3,993028858894865E-002	9,407999762333930E+000	2,000000000000000E+000
-1,2849678E-001	4,155314735908186E-002	9,424999761904473E+000	2,000000000000000E+000
-1,2679817E-001	4,318524526934221E-002	9,441999761475017E+000	2,000000000000000E+000
-1,2512153E-001	4,471332679531814E-002	9,458999761045561E+000	2,000000000000000E+000
-1,2345481E-001	4,626286463644663E-002	9,475999760616105E+000	2,000000000000000E+000
-1,2174365E-001	4,785651581914829E-002	9,492999760186649E+000	2,000000000000000E+000
-1,2004074E-001	4,936909601019590E-002	9,509999759757193E+000	2,000000000000000E+000
-1,1834475E-001	5,098420620015542E-002	9,526999759327737E+000	2,000000000000000E+000
-1,1663337E-001	5,274327050938182E-002	9,543999758898281E+000	2,000000000000000E+000
-1,1493272E-001	5,434139367935137E-002	9,560999758468824E+000	2,000000000000000E+000
-1,1323447E-001	5,569601234492449E-002	9,577999758039368E+000	2,000000000000000E+000
-1,1152654E-001	5,734986647621587E-002	9,594999757609912E+000	2,000000000000000E+000
-1,0983547E-001	5,902667032933118E-002	9,611999757180456E+000	2,000000000000000E+000
-1,0812097E-001	6,066472886777807E-002	9,628999756751000E+000	2,000000000000000E+000
-1,0642247E-001	6,227626138570508E-002	9,645999756321544E+000	2,000000000000000E+000
-1,0472291E-001	6,383354805075214E-002	9,662999755892088E+000	2,000000000000000E+000
-1,0304102E-001	6,537980579378241E-002	9,679999755462632E+000	2,000000000000000E+000
-1,0132557E-001	6,704409459052854E-002	9,696999755033175E+000	2,000000000000000E+000
-1,0022088E-001	6,808099285990488E-002	9,707999754755292E+000	2,000000000000000E+000
-9,9963844E-002	6,814895756542683E-002	9,710999754679506E+000	2,000000000000000E+000
-9,9803321E-002	7,262202352285385E-002	9,711399754669401E+000	2,000000000000000E+000
-1,0072361E-001	4,734596245725711E-002	9,720399754442042E+000	2,000000000000000E+000
-1,0242653E-001	3,035974613339926E-002	9,737399754012586E+000	2,000000000000000E+000
-1,0411917E-001	2,014065644198137E-002	9,754399753583130E+000	2,000000000000000E+000
-1,0581503E-001	1,233871653903414E-002	9,771399753153673E+000	2,000000000000000E+000
-1,0753788E-001	5,848177467214596E-003	9,788399752724217E+000	2,000000000000000E+000
-1,0921966E-001	3,948366307078306E-004	9,805399752294761E+000	2,000000000000000E+000
-1,1092651E-001	-4,344982703628375E-003	9,822399751865305E+000	2,000000000000000E+000
-1,1262727E-001	-8,672009966858213E-003	9,839399751435849E+000	2,000000000000000E+000
-1,1433902E-001	-1,246970730608157E-002	9,856399751006393E+000	2,000000000000000E+000
-1,1602616E-001	-1,590528093402094E-002	9,873399750576937E+000	2,000000000000000E+000
-1,1774065E-001	-1,910867683363895E-002	9,890399750147481E+000	2,000000000000000E+000
-1,1944645E-001	-2,203608095260273E-002	9,907399749718024E+000	2,000000000000000E+000
-1,2113333E-001	-2,470656939385668E-002	9,924399749288568E+000	2,000000000000000E+000
-1,2282586E-001	-2,727750854683099E-002	9,941399748859112E+000	2,000000000000000E+000
-1,2454226E-001	-2,960643710048297E-002	9,958399748429656E+000	2,000000000000000E+000
-1,2622429E-001	-3,173478360167775E-002	9,975399748000200E+000	2,000000000000000E+000
-1,2791453E-001	-3,380024272701099E-002	9,992399747570744E+000	2,000000000000000E+000
-1,2961255E-001	-3,574409617976904E-002	1,000939974714129E+001	2,000000000000000E+000
-1,3130817E-001	-3,772967601980776E-002	1,002639974671183E+001	2,000000000000000E+000
-1,3301861E-001	-3,945923361607129E-002	1,004339974628238E+001	2,000000000000000E+000
-1,3470241E-001	-4,112828799225088E-002	1,006039974585292E+001	2,000000000000000E+000
-1,3642001E-001	-4,289480580337102E-002	1,007739974542346E+001	2,000000000000000E+000
-1,3810572E-001	-4,446371711674152E-002	1,009439974499401E+001	2,000000000000000E+000
-1,3982189E-001	-4,606571217482269E-002	1,011139974456455E+001	2,000000000000000E+000
-1,4150867E-001	-4,758634256722838E-002	1,012839974413509E+001	2,000000000000000E+000
-1,4320765E-001	-4,885690946684901E-002	1,014539974370564E+001	2,000000000000000E+000
-1,4491054E-001	-5,027352206343466E-002	1,016239974327618E+001	2,000000000000000E+000
-1,4662039E-001	-5,156316364445945E-002	1,017939974284673E+001	2,000000000000000E+000
-1,4831841E-001	-5,291629287057720E-002	1,019639974241727E+001	2,000000000000000E+000
-1,5001838E-001	-5,430370802317619E-002	1,021329974199034E+001	2,000000000000000E+000
-1,5171719E-001	-5,554177584053807E-002	1,023019974156341E+001	2,000000000000000E+000
-1,5341282E-001	-5,671071070537437E-002	1,024719974113395E+001	2,000000000000000E+000
-1,5511084E-001	-5,770976074745685E-002	1,026419974070450E+001	2,000000000000000E+000
-1,5681267E-001	-5,900894075057267E-002	1,028119974027504E+001	2,000000000000000E+000
-1,5853263E-001	-6,016565572463134E-002	1,029819973984559E+001	2,000000000000000E+000
-1,6019914E-001	-6,117096819616541E-002	1,031519973941613E+001	2,000000000000000E+000
-1,6189881E-001	-6,223558660713016E-002	1,033219973898667E+001	2,000000000000000E+000
-1,6360520E-001	-6,351897234708304E-002	1,034919973855722E+001	2,000000000000000E+000
-1,6530070E-001	-6,439761375440844E-002	1,036619973812776E+001	2,000000000000000E+000
-1,6698700E-001	-6,539010687993119E-002	1,038319973769831E+001	2,000000000000000E+000
-1,6871081E-001	-6,645084991032463E-002	1,040019973726885E+001	2,000000000000000E+000
-1,7040716E-001	-6,752351786781152E-002	1,041719973683939E+001	2,000000000000000E+000
-1,7209621E-001	-6,858515496787709E-002	1,043419973640994E+001	2,000000000000000E+000
-1,7379685E-001	-6,936156367373769E-002	1,045119973598048E+001	2,000000000000000E+000
-1,7551014E-001	-7,041753609155355E-002	1,046819973555102E+001	2,000000000000000E+000
-1,7720839E-001	-7,140049197187093E-002	1,048519973512157E+001	2,000000000000000E+000
-1,7889641E-001	-7,220014846825479E-002	1,050219973469211E+001	2,000000000000000E+000
-1,8059762E-001	-7,328116018106801E-002	1,051919973426266E+001	2,000000000000000E+000
-1,8230294E-001	-7,432044275265022E-002	1,053619973383320E+001	2,000000000000000E+000
-1,8399699E-001	-7,532337007069101E-002	1,055319973340374E+001	2,000000000000000E+000
-1,8570350E-001	-7,608398322918175E-002	1,057019973297429E+001	2,000000000000000E+000
-1,8739924E-001	-7,712326520413604E-002	1,058719973254483E+001	2,000000000000000E+000
-1,8909703E-001	-7,826478042261405E-002	1,060419973211538E+001	2,000000000000000E+000
-1,9079718E-001	-7,901704226242046E-002	1,062119973168592E+001	2,000000000000000E+000
-1,9251178E-001	-8,004172865548753E-002	1,063819973125646E+001	2,000000000000000E+000
-1,9420169E-001	-8,091529887678872E-002	1,065519973082701E+001	2,000000000000000E+000
-1,9590460E-001	-8,186338086306894E-002	1,067219973039755E+001	2,000000000000000E+000
-1,9760846E-001	-8,282248795876457E-002	1,068919972996810E+001	2,000000000000000E+000
-1,9915543E-001	-8,363606134662360E-002	1,070469972957653E+001	2,000000000000000E+000
-1,9989210E-001	-8,528017252683640E-002	1,071159972940222E+001	2,000000000000000E+000
-1,9976217E-001	-8,052097633481026E-002	1,071259972937696E+001	2,000000000000000E+000
-1,9890732E-001	-6,641806616971707E-002	1,072159972914960E+001	2,000000000000000E+000
-1,9722126E-001	-5,524372938452871E-002	1,073859972872015E+001	2,000000000000000E+000
-1,9551225E-001	-4,808497044723489E-002	1,075559972829069E+001	2,000000000000000E+000
-1,9379787E-001	-4,253655578213489E-002	1,077259972786123E+001	2,000000000000000E+000
-1,9210202E-001	-3,787184396423948E-002	1,078959972743178E+001	2,000000000000000E+000
-1,9040520E-001	-3,364704681007402E-002	1,080659972700232E+001	2,000000000000000E+000
-1,8870634E-001	-2,982162758507900E-002	1,082359972657287E+001	2,000000000000000E+000
-1,8700284E-001	-2,640810983120884E-002	1,084059972614341E+001	2,000000000000000E+000
-1,8529944E-001	-2,319398727013321E-002	1,085759972571395E+001	2,000000000000000E+000
-1,8359104E-001	-2,020697386160464E-002	1,087459972528450E+001	2,000000000000000E+000
-1,8188716E-001	-1,741935315658335E-002	1,089159972485504E+001	2,000000000000000E+000
-1,8019585E-001	-1,468746534192174E-002	1,090859972442559E+001	2,000000000000000E+000
-1,7849378E-001	-1,200892964106969E-002	1,092559972399613E+001	2,000000000000000E+000
-1,7680556E-001	-9,649599982367377E-003	1,094259972356667E+001	2,000000000000000E+000
-1,7510588E-001	-7,369550550947707E-003	1,095959972313722E+001	2,000000000000000E+000
-1,7338802E-001	-5,009028661334007E-003	1,097659972270776E+001	2,000000000000000E+000
-1,7170388E-001	-2,783223851110961E-003	1,099359972227830E+001	2,000000000000000E+000
-1,6998839E-001	-6,742529301386711E-004	1,101059972184885E+001	2,000000000000000E+000
-1,6828874E-001	1,486279520619862E-003	1,102759972141939E+001	2,000000000000000E+000
-1,6660003E-001	3,570512669739418E-003	1,104459972098994E+001	2,000000000000000E+000
-1,6492006E-001	5,508703316991173E-003	1,106159972056048E+001	2,000000000000000E+000
-1,6321129E-001	7,460305693257424E-003	1,107859972013102E+001	2,000000000000000E+000
-1,6150205E-001	9,349021165689968E-003	1,109559971970157E+001	2,000000000000000E+000
-1,5980069E-001	1,140255540485671E-002	1,111259971927211E+001	2,000000000000000E+000
-1,5811151E-001	1,307429277358105E-002	1,112959971884266E+001	2,000000000000000E+000
-1,5640824E-001	1,491740733217740E-002	1,114659971841320E+001	2,000000000000000E+000
-1,5469399E-001	1,675634754064970E-002	1,116359971798374E+001	2,000000000000000E+000
-1,5300888E-001	1,831423200656002E-002	1,118059971755429E+001	2,000000000000000E+000
-1,5130058E-001	2,005600992197298E-002	1,119759971712483E+001	2,000000000000000E+000
-1,5018369E-001	2,125739089775991E-002	1,120889971683937E+001	2,000000000000000E+000
-1,4979039E-001	2,147262403741479E-002	1,121239971675095E+001	3,000000000000000E+000
-1,4891870E-001	2,239656375513732E-002	1,122139971652359E+001	3,000000000000000E+000
-1,4721626E-001	2,414042805230576E-002	1,123839971609414E+001	3,000000000000000E+000
-1,4551035E-001	2,594360553575839E-002	1,125539971566468E+001	3,000000000000000E+000
-1,4380255E-001	2,746423265398329E-002	1,127239971523522E+001	3,000000000000000E+000
-1,4210287E-001	2,907904555831919E-002	1,128939971480577E+001	3,000000000000000E+000
-1,4040843E-001	3,083363879068210E-002	1,130639971437631E+001	3,000000000000000E+000
-1,3871773E-001	3,229912587266870E-002	1,132339971394686E+001	3,000000000000000E+000
-1,3700847E-001	3,384837049452483E-002	1,134039971351740E+001	3,000000000000000E+000
-1,3530102E-001	3,563068168296035E-002	1,135739971308794E+001	3,000000000000000E+000
-1,3360995E-001	3,711375923558100E-002	1,137439971265849E+001	3,000000000000000E+000
-1,3190320E-001	3,881828037447127E-002	1,139139971222903E+001	3,000000000000000E+000
-1,3020520E-001	4,037974381390093E-002	1,140839971179958E+001	3,000000000000000E+000
-1,2850395E-001	4,204462556663197E-002	1,142539971137012E+001	3,000000000000000E+000
-1,2681046E-001	4,358462596428594E-002	1,144239971094066E+001	3,000000000000000E+000
-1,2512584E-001	4,517201936505433E-002	1,145939971051121E+001	3,000000000000000E+000
-1,2342029E-001	4,659965650716946E-002	1,147639971008175E+001	3,000000000000000E+000
-1,2172312E-001	4,831967826430639E-002	1,149339970965229E+001	3,000000000000000E+000
-1,2003311E-001	4,984716095714259E-002	1,151039970922284E+001	3,000000000000000E+000
-1,1832470E-001	5,158536455564905E-002	1,152739970879338E+001	3,000000000000000E+000
-1,1662788E-001	5,306158635721681E-002	1,154439970836393E+001	3,000000000000000E+000
-1,1491624E-001	5,471842246333858E-002	1,156139970793447E+001	3,000000000000000E+000
-1,1323389E-001	5,628435198923387E-002	1,157839970750501E+001	3,000000000000000E+000
-1,1152057E-001	5,792062465479841E-002	1,159539970707556E+001	3,000000000000000E+000
-1,0984214E-001	5,948893955610390E-002	1,161239970664610E+001	3,000000000000000E+000
-1,0812633E-001	6,107364965100745E-002	1,162939970621665E+001	3,000000000000000E+000
-1,0641652E-001	6,276982044437318E-002	1,164639970578719E+001	3,000000000000000E+000
-1,0471503E-001	6,428359402343661E-002	1,166339970535773E+001	3,000000000000000E+000
-1,0301367E-001	6,596278287179347E-002	1,168039970492828E+001	3,000000000000000E+000
-1,0133501E-001	6,761335930423273E-002	1,169739970449882E+001	3,000000000000000E+000
-1,0022137E-001	6,868543135351501E-002	1,170839970422094E+001	3,000000000000000E+000
-9,9902697E-002	6,933160126209259E-002	1,171139970414515E+001	3,000000000000000E+000
-9,9803321E-002	7,246942818164825E-002	1,171179970413505E+001	3,000000000000000E+000
-1,0072552E-001	4,788751075830106E-002	1,172079970390769E+001	3,000000000000000E+000
-1,0242210E-001	3,088549923904804E-002	1,173779970347823E+001	3,000000000000000E+000
-1,0411618E-001	2,068697435970535E-002	1,175479970304878E+001	3,000000000000000E+000
-1,0582303E-001	1,282631939648135E-002	1,177179970261932E+001	3,000000000000000E+000
-1,0752988E-001	6,290774787430601E-003	1,178879970218986E+001	3,000000000000000E+000
-1,0923292E-001	9,268479604145289E-004	1,180579970176041E+001	3,000000000000000E+000
-1,1092734E-001	-3,811779278180438E-003	1,182279970133095E+001	3,000000000000000E+000
-1,1261436E-001	-8,077110356907682E-003	1,183979970090149E+001	3,000000000000000E+000
-1,1432696E-001	-1,196094354372693E-002	1,185679970047204E+001	3,000000000000000E+000
-1,1602641E-001	-1,524063826445846E-002	1,187379970004258E+001	3,000000000000000E+000
-1,1773229E-001	-1,849887498610764E-002	1,189079969961313E+001	3,000000000000000E+000
-1,1943951E-001	-2,151688424055448E-002	1,190779969918367E+001	3,000000000000000E+000
-1,2112834E-001	-2,425503111317073E-002	1,192479969875421E+001	3,000000000000000E+000
-1,2283041E-001	-2,678245642982799E-002	1,194179969832476E+001	3,000000000000000E+000
-1,2453402E-001	-2,908605138327398E-002	1,195879969789530E+001	3,000000000000000E+000
-1,2621617E-001	-3,129427151270635E-002	1,197579969746585E+001	3,000000000000000E+000
-1,2791035E-001	-3,333737750108401E-002	1,199279969703639E+001	3,000000000000000E+000
-1,2962377E-001	-3,533308830628801E-002	1,200979969660693E+001	3,000000000000000E+000
-1,3132226E-001	-3,733923556683272E-002	1,202679969617748E+001	3,000000000000000E+000
-1,3301311E-001	-3,905985214623792E-002	1,204379969574802E+001	3,000000000000000E+000
-1,3470063E-001	-4,081504130226654E-002	1,206079969531856E+001	3,000000000000000E+000
-1,3640782E-001	-4,251032854881476E-002	1,207779969488911E+001	3,000000000000000E+000
-1,3813008E-001	-4,409115932321583E-002	1,209479969445965E+001	3,000000000000000E+000
-1,3982248E-001	-4,553310328810778E-002	1,211179969403020E+001	3,000000000000000E+000
-1,4149937E-001	-4,707579007481383E-002	1,212879969360074E+001	3,000000000000000E+000
-1,4320467E-001	-4,832042609632448E-002	1,214579969317128E+001	3,000000000000000E+000
-1,4491008E-001	-4,975641137571046E-002	1,216279969274183E+001	3,000000000000000E+000
-1,4661349E-001	-5,118375363053906E-002	1,217979969231237E+001	3,000000000000000E+000
-1,4832403E-001	-5,245551168445650E-002	1,219679969188292E+001	3,000000000000000E+000
-1,5002474E-001	-5,388937289480256E-002	1,221369969145599E+001	3,000000000000000E+000
-1,5172113E-001	-5,511736073458462E-002	1,223059969102906E+001	3,000000000000000E+000
-1,5340289E-001	-5,605173184449092E-002	1,224759969059960E+001	3,000000000000000E+000
-1,5512384E-001	-5,723288670924349E-002	1,226459969017014E+001	3,000000000000000E+000
-1,5683298E-001	-5,840092684047693E-002	1,228159968974069E+001	3,000000000000000E+000
-1,5851508E-001	-5,957701901934331E-002	1,229859968931123E+001	3,000000000000000E+000
-1,6021395E-001	-6,069021947769182E-002	1,231559968888178E+001	3,000000000000000E+000
-1,6191840E-001	-6,167138687305807E-002	1,233259968845232E+001	3,000000000000000E+000
-1,6362418E-001	-6,287221092134154E-002	1,234959968802286E+001	3,000000000000000E+000
-1,6532826E-001	-6,383072977769166E-002	1,236659968759341E+001	3,000000000000000E+000
-1,6700540E-001	-6,483752985877789E-002	1,238359968716395E+001	3,000000000000000E+000
-1,6870485E-001	-6,585237453691645E-002	1,240059968673449E+001	3,000000000000000E+000
-1,7042065E-001	-6,689016972086326E-002	1,241759968630504E+001	3,000000000000000E+000
-1,7210719E-001	-6,791663589683572E-002	1,243459968587558E+001	3,000000000000000E+000
-1,7382097E-001	-6,902447564425551E-002	1,245159968544613E+001	3,000000000000000E+000
-1,7552103E-001	-6,982294004774281E-002	1,246859968501667E+001	3,000000000000000E+000
-1,7721890E-001	-7,068369305488842E-002	1,248559968458721E+001	3,000000000000000E+000
-1,7891718E-001	-7,160614652457298E-002	1,250259968415776E+001	3,000000000000000E+000
-1,8061388E-001	-7,271576664424996E-002	1,251959968372830E+001	3,000000000000000E+000
-1,8231165E-001	-7,368620282068128E-002	1,253659968329885E+001	3,000000000000000E+000
-1,8400416E-001	-7,460418266418795E-002	1,255359968286939E+001	3,000000000000000E+000
-1,8571211E-001	-7,572245059054672E-002	1,257059968243993E+001	3,000000000000000E+000
-1,8742266E-001	-7,645623480129815E-002	1,258759968201048E+001	3,000000000000000E+000
-1,8912363E-001	-7,749313680324099E-002	1,260459968158102E+001	3,000000000000000E+000
-1,9081987E-001	-7,840962755653891E-002	1,262159968115157E+001	3,000000000000000E+000
-1,9251716E-001	-7,921971852920207E-002	1,263859968072211E+001	3,000000000000000E+000
-1,9421826E-001	-8,022204433291291E-002	1,265559968029265E+001	3,000000000000000E+000
-1,9591451E-001	-8,109621089170105E-002	1,267259967986320E+001	3,000000000000000E+000
-1,9764036E-001	-8,212417372123978E-002	1,268959967943374E+001	3,000000000000000E+000
-1,9916850E-001	-8,286829635751647E-002	1,270509967904218E+001	3,000000000000000E+000
-1,9993414E-001	-8,425012230873108E-002	1,271199967886787E+001	3,000000000000000E+000
-1,9984624E-001	-7,897590473294258E-002	1,271299967884261E+001	3,000000000000000E+000
-1,9891617E-001	-6,579842256178337E-002	1,272199967861525E+001	3,000000000000000E+000
-1,9722603E-001	-5,457789726642648E-002	1,273899967818579E+001	3,000000000000000E+000
-1,9553399E-001	-4,762568296791839E-002	1,275599967775634E+001	3,000000000000000E+000
-1,9381352E-001	-4,190469645072870E-002	1,277299967732688E+001	3,000000000000000E+000
-1,9210891E-001	-3,722806352925534E-002	1,278999967689742E+001	3,000000000000000E+000
-1,9041283E-001	-3,326346118046786E-002	1,280699967646797E+001	3,000000000000000E+000
-1,8872163E-001	-2,941360269232973E-002	1,282399967603851E+001	3,000000000000000E+000
-1,8702087E-001	-2,599859657402698E-002	1,284099967560906E+001	3,000000000000000E+000
-1,8531878E-001	-2,284914842766733E-002	1,285799967517960E+001	3,000000000000000E+000
-1,8362270E-001	-1,990892964840882E-002	1,287499967475014E+001	3,000000000000000E+000
-1,8189804E-001	-1,699523461320497E-002	1,289199967432069E+001	3,000000000000000E+000
-1,8020874E-001	-1,426424083183519E-002	1,290899967389123E+001	3,000000000000000E+000
-1,7850786E-001	-1,176840643756805E-002	1,292599967346177E+001	3,000000000000000E+000
-1,7682239E-001	-9,274061877931720E-003	1,294299967303232E+001	3,000000000000000E+000
-1,7511113E-001	-6,862574570277488E-003	1,295999967260286E+001	3,000000000000000E+000
-1,7341238E-001	-4,613223824890142E-003	1,297699967217341E+001	3,000000000000000E+000
-1,7170115E-001	-2,435106378698031E-003	1,299399967174395E+001	3,000000000000000E+000
-1,7001708E-001	-2,349337578433375E-004	1,301099967131449E+001	3,000000000000000E+000
-1,6831513E-001	1,759885454333698E-003	1,302799967088504E+001	3,000000000000000E+000
-1,6661330E-001	3,878691739942056E-003	1,304499967045558E+001	3,000000000000000E+000
-1,6491075E-001	5,910170622428282E-003	1,306199967002613E+001	3,000000000000000E+000
-1,6320127E-001	7,699636654251676E-003	1,307899966959667E+001	3,000000000000000E+000
-1,6150992E-001	9,664353233347439E-003	1,309599966916721E+001	3,000000000000000E+000
-1,5981252E-001	1,148719992352200E-002	1,311299966873776E+001	3,000000000000000E+000
-1,5812738E-001	1,331869023533733E-002	1,312999966830830E+001	3,000000000000000E+000
-1,5641947E-001	1,521187556227234E-002	1,314699966787884E+001	3,000000000000000E+000
-1,5471430E-001	1,683652135579911E-002	1,316399966744939E+001	3,000000000000000E+000
-1,5301998E-001	1,851422052277496E-002	1,318099966701993E+001	3,000000000000000E+000
-1,5131696E-001	2,031322349193948E-002	1,319799966659048E+001	3,000000000000000E+000
-1,5022229E-001	2,185968325162925E-002	1,320879966631765E+001	3,000000000000000E+000
-1,4993562E-001	2,212117239832878E-002	1,321179966624186E+001	3,000000000000000E+000
-1,4982478E-001	2,672776393592358E-002	1,321199966623681E+001	3,000000000000000E+000