File: ECSA/ECSA header/4 CV for ECSA_01_CV_C01.txt
EC-Lab ASCII FILE
Nb header lines : 61

Cyclic Voltammetry

Run on channel : 1 (SN 1153)
User :
Electrode connection : standard
Potential control : Ewe
Ewe ctrl range : min = -2,50 V, max = 2,50 V
Ewe,I filtering : 50 kHz
Safety Limits :
	Do not start on E overload
Channel : Grounded
Acquisition started on : 12/20/2024 11:49:19.340
Technique started on : 12/20/2024 11:49:19.340
Loaded Setting File :  C:\Users\lab10\Desktop\Andraž Stariha\T20-6_ED-PP-Fe-1-1.5V-50-10-60m\6 CV for ECSA.mps
Saved on :
	File : 4 CV for ECSA_01_CV_C01.mpr
	Directory : C:\Users\lab10\Desktop\Andraž Stariha\IMT16-Fe-3_ED-PP-Co-1-1.5V-50-10-60m\
	Host : 178.172.20.122
Device : SP-200 (SN 0067)
Address : USB
EC-Lab for windows v11.52 (software)
Internet server v11.52 (firmware)
Command interpretor v11.52 (firmware)
Electrode material :
Initial state :
Electrolyte :
Comments :
Cable : standard
Reference electrode : SCE Saturated Calomel Electrode (0,241 V)
Electrode surface area : 0,001 cm²
Characteristic mass : 0,001 g
Equivalent Weight : 0,000 g/eq.
Density : 0,000 g/cm3
Volume (V) : 0,001 cm³
Cycle Definition : Charge/Discharge alternance
Ei (V)              -0,150
vs.                 Ref
dE/dt               1000,000
dE/dt unit          mV/s
E1 (V)              0,050
vs.                 Ei
Step percent        85
N                   17
E range min (V)     -2,500
E range max (V)     2,500
I Range             10 mA
I Range min         Unset
I Range max         Unset
I Range init        Unset
Bandwidth           8
E2 (V)              -0,050
vs.                 Ei
nc cycles           2
Reverse Scan        1
Ef (V)              0,000
vs.                 Ei

Ewe/V	<I>/mA	time/s	cycle number
-1,5014201E-001	-1,643052697181702E+000	0,000000000000000E+000	1,000000000000000E+000
-1,4815824E-001	-7,086057302767568E-001	1,799999954528175E-003	1,000000000000000E+000
-1,4471562E-001	-3,348147239084938E-001	5,199999868636951E-003	1,000000000000000E+000
-1,4132057E-001	-2,104021236427798E-001	8,599999782745726E-003	1,000000000000000E+000
-1,3791367E-001	-1,380783745617005E-001	1,199999969685450E-002	1,000000000000000E+000
-1,3451548E-001	-8,748690457696240E-002	1,539999961096328E-002	1,000000000000000E+000
-1,3110478E-001	-4,850849288050052E-002	1,879999952507205E-002	1,000000000000000E+000
-1,2770575E-001	-1,706467720805438E-002	2,219999943918083E-002	1,000000000000000E+000
-1,2432966E-001	1,027445246997874E-002	2,559999935328960E-002	1,000000000000000E+000
-1,2094952E-001	3,382720867261918E-002	2,899999926739838E-002	1,000000000000000E+000
-1,1753821E-001	5,532941184537782E-002	3,239999918150716E-002	1,000000000000000E+000
-1,1413335E-001	7,526389697795843E-002	3,579999909561593E-002	1,000000000000000E+000
-1,1073720E-001	9,374272750756107E-002	3,919999900972471E-002	1,000000000000000E+000
-1,0733017E-001	1,116242685820910E-001	4,259999892383348E-002	1,000000000000000E+000
-1,0391875E-001	1,282194432369583E-001	4,599999883794226E-002	1,000000000000000E+000
-1,0112976E-001	1,418487328497586E-001	4,879999876720831E-002	1,000000000000000E+000
-9,9925622E-002	1,471286714076996E-001	4,999999873689376E-002	1,000000000000000E+000
-9,9753641E-002	1,493795067071915E-001	5,019999873184133E-002	1,000000000000000E+000
-9,9933267E-002	1,115730181336403E-001	5,039999872678891E-002	1,000000000000000E+000
-1,0170501E-001	3,711405423752734E-002	5,219999868131708E-002	1,000000000000000E+000
-1,0510439E-001	-3,062336993281167E-002	5,559999859542586E-002	1,000000000000000E+000
-1,0851821E-001	-7,145920483844714E-002	5,899999850953463E-002	1,000000000000000E+000
-1,1191220E-001	-1,013460238737023E-001	6,239999842364341E-002	1,000000000000000E+000
-1,1532554E-001	-1,245208651725986E-001	6,579999833775219E-002	1,000000000000000E+000
-1,1873162E-001	-1,441501634708402E-001	6,919999825186096E-002	1,000000000000000E+000
-1,2211426E-001	-1,605712824693901E-001	7,259999816596974E-002	1,000000000000000E+000
-1,2551507E-001	-1,751445124118618E-001	7,599999808007851E-002	1,000000000000000E+000
-1,2888518E-001	-1,879819325331479E-001	7,939999799418729E-002	1,000000000000000E+000
-1,3229507E-001	-1,994257015176109E-001	8,279999790829606E-002	1,000000000000000E+000
-1,3570400E-001	-2,095997853975851E-001	8,619999782240484E-002	1,000000000000000E+000
-1,3909894E-001	-2,190192115140239E-001	8,959999773651361E-002	1,000000000000000E+000
-1,4248255E-001	-2,276565817955998E-001	9,299999765062239E-002	1,000000000000000E+000
-1,4591093E-001	-2,360471560459687E-001	9,639999756473117E-002	1,000000000000000E+000
-1,4929192E-001	-2,437665460984123E-001	9,979999747883994E-002	1,000000000000000E+000
-1,5270096E-001	-2,509625774164288E-001	1,031999973929487E-001	1,000000000000000E+000
-1,5610629E-001	-2,578748434716542E-001	1,065999973070575E-001	1,000000000000000E+000
-1,5950149E-001	-2,644497471828798E-001	1,099999972211663E-001	1,000000000000000E+000
-1,6289015E-001	-2,709697836817209E-001	1,133999971352750E-001	1,000000000000000E+000
-1,6630000E-001	-2,771798603171196E-001	1,167999970493838E-001	1,000000000000000E+000
-1,6969603E-001	-2,832802566281307E-001	1,201999969634926E-001	1,000000000000000E+000
-1,7309493E-001	-2,891243336271150E-001	1,235999968776014E-001	1,000000000000000E+000
-1,7649813E-001	-2,946453328531780E-001	1,269999967917101E-001	1,000000000000000E+000
-1,7988065E-001	-3,000209060464833E-001	1,303999967058189E-001	1,000000000000000E+000
-1,8327837E-001	-3,056039024722832E-001	1,337999966199277E-001	1,000000000000000E+000
-1,8668059E-001	-3,113811875082313E-001	1,371999965340365E-001	1,000000000000000E+000
-1,9008429E-001	-3,165648147332822E-001	1,405999964481452E-001	1,000000000000000E+000
-1,9349679E-001	-3,220345532390629E-001	1,439999963622540E-001	1,000000000000000E+000
-1,9689615E-001	-3,271430484564899E-001	1,473999962763628E-001	1,000000000000000E+000
-1,9910528E-001	-3,302880094997835E-001	1,495999962207861E-001	1,000000000000000E+000
-1,9971249E-001	-3,321859538555145E-001	1,501999962056289E-001	1,000000000000000E+000
-1,9991121E-001	-3,139122128486633E-001	1,503999962005764E-001	1,000000000000000E+000
-1,9971630E-001	-3,005597591400146E-001	1,507999961904716E-001	1,000000000000000E+000
-1,9771487E-001	-2,157824426085422E-001	1,525999961449998E-001	1,000000000000000E+000
-1,9431476E-001	-1,561614017291504E-001	1,559999960591085E-001	1,000000000000000E+000
-1,9091770E-001	-1,181808349210760E-001	1,593999959732173E-001	1,000000000000000E+000
-1,8750542E-001	-8,867789212581534E-002	1,627999958873261E-001	1,000000000000000E+000
-1,8411872E-001	-6,480921159482000E-002	1,661999958014349E-001	1,000000000000000E+000
-1,8070762E-001	-4,371472836214704E-002	1,695999957155436E-001	1,000000000000000E+000
-1,7730428E-001	-2,557447675076197E-002	1,729999956296524E-001	1,000000000000000E+000
-1,7390803E-001	-8,972141232021613E-003	1,763999955437612E-001	1,000000000000000E+000
-1,7050447E-001	6,284218087493798E-003	1,797999954578700E-001	1,000000000000000E+000
-1,6710679E-001	2,042588572146543E-002	1,831999953719787E-001	1,000000000000000E+000
-1,6372342E-001	3,387012685698231E-002	1,865999952860875E-001	1,000000000000000E+000
-1,6031475E-001	4,649295367880779E-002	1,899999952001963E-001	1,000000000000000E+000
-1,5692911E-001	5,889165626103932E-002	1,933999951143051E-001	1,000000000000000E+000
-1,5351193E-001	7,015420310199272E-002	1,967999950284138E-001	1,000000000000000E+000
-1,5079835E-001	7,904390360151159E-002	1,994999949602061E-001	1,000000000000000E+000
-1,4973305E-001	8,273174613714218E-002	2,005999949324178E-001	2,000000000000000E+000
-1,4791901E-001	8,859726463379070E-002	2,023999948869459E-001	2,000000000000000E+000
-1,4450924E-001	9,965236906828090E-002	2,057999948010547E-001	2,000000000000000E+000
-1,4110474E-001	1,101745757387108E-001	2,091999947151635E-001	2,000000000000000E+000
-1,3771600E-001	1,206014043218606E-001	2,125999946292723E-001	2,000000000000000E+000
-1,3430911E-001	1,312821661604178E-001	2,159999945433810E-001	2,000000000000000E+000
-1,3090722E-001	1,413131839917705E-001	2,193999944574898E-001	2,000000000000000E+000
-1,2751573E-001	1,518294234792847E-001	2,227999943715986E-001	2,000000000000000E+000
-1,2413739E-001	1,622502956379331E-001	2,261999942857074E-001	2,000000000000000E+000
-1,2073012E-001	1,722598612759603E-001	2,295999941998161E-001	2,000000000000000E+000
-1,1734844E-001	1,831862219096374E-001	2,329999941139249E-001	2,000000000000000E+000
-1,1393580E-001	1,934234849595668E-001	2,363999940280337E-001	2,000000000000000E+000
-1,1052031E-001	2,042830784484986E-001	2,397999939421425E-001	2,000000000000000E+000
-1,0714028E-001	2,150782898806947E-001	2,431999938562512E-001	2,000000000000000E+000
-1,0372682E-001	2,259390759281819E-001	2,465999937703600E-001	2,000000000000000E+000
-1,0104356E-001	2,348796534869404E-001	2,492999937021523E-001	2,000000000000000E+000
-9,9937089E-002	2,388027459383011E-001	2,503999936743639E-001	2,000000000000000E+000
-9,9711590E-002	2,403287291526794E-001	2,505999936693115E-001	2,000000000000000E+000
-9,9891230E-002	2,051927447319031E-001	2,507999936642591E-001	2,000000000000000E+000
-1,0171314E-001	1,243043186914296E-001	2,525999936187873E-001	2,000000000000000E+000
-1,0510642E-001	5,148343176074355E-002	2,559999935328960E-001	2,000000000000000E+000
-1,0851724E-001	5,586790958486403E-003	2,593999934470048E-001	2,000000000000000E+000
-1,1191306E-001	-2,859546681304437E-002	2,627999933611136E-001	2,000000000000000E+000
-1,1531564E-001	-5,602878500258146E-002	2,661999932752224E-001	2,000000000000000E+000
-1,1871526E-001	-7,941344434811975E-002	2,695999931893311E-001	2,000000000000000E+000
-1,2210470E-001	-9,934316254384568E-002	2,729999931034399E-001	2,000000000000000E+000
-1,2548999E-001	-1,166345758620077E-001	2,763999930175487E-001	2,000000000000000E+000
-1,2888590E-001	-1,324572309385981E-001	2,797999929316575E-001	2,000000000000000E+000
-1,3227859E-001	-1,461399090476339E-001	2,831999928457662E-001	2,000000000000000E+000
-1,3569562E-001	-1,587388913467289E-001	2,865999927598750E-001	2,000000000000000E+000
-1,3910335E-001	-1,702780349114610E-001	2,899999926739838E-001	2,000000000000000E+000
-1,4249092E-001	-1,808371829029045E-001	2,933999925880926E-001	2,000000000000000E+000
-1,4589936E-001	-1,909862326265286E-001	2,967999925022013E-001	2,000000000000000E+000
-1,4929073E-001	-2,002840756213116E-001	3,001999924163101E-001	2,000000000000000E+000
-1,5269655E-001	-2,084886652064588E-001	3,035999923304189E-001	2,000000000000000E+000
-1,5609483E-001	-2,168768706378592E-001	3,069999922445277E-001	2,000000000000000E+000
-1,5949613E-001	-2,239274270286837E-001	3,103999921586365E-001	2,000000000000000E+000
-1,6289502E-001	-2,323692829668289E-001	3,137999920727452E-001	2,000000000000000E+000
-1,6628389E-001	-2,393948060107496E-001	3,171999919868540E-001	2,000000000000000E+000
-1,6969258E-001	-2,462868162365330E-001	3,205999919009628E-001	2,000000000000000E+000
-1,7308764E-001	-2,529773650239786E-001	3,239999918150716E-001	2,000000000000000E+000
-1,7649479E-001	-2,592887613536730E-001	3,273999917291803E-001	2,000000000000000E+000
-1,7987956E-001	-2,654332861111466E-001	3,307999916432891E-001	2,000000000000000E+000
-1,8327682E-001	-2,717923903837800E-001	3,341999915573979E-001	2,000000000000000E+000
-1,8669242E-001	-2,782003649863318E-001	3,375999914715067E-001	2,000000000000000E+000
-1,9008724E-001	-2,840349161997429E-001	3,409999913856154E-001	2,000000000000000E+000
-1,9349177E-001	-2,899254935055069E-001	3,443999912997242E-001	2,000000000000000E+000
-1,9690356E-001	-2,961117022059602E-001	3,477999912138330E-001	2,000000000000000E+000
-1,9911723E-001	-3,001591799329613E-001	3,499999911582563E-001	2,000000000000000E+000
-1,9967808E-001	-2,994152307510376E-001	3,505999911430990E-001	2,000000000000000E+000
-1,9993414E-001	-2,833541631698608E-001	3,507999911380466E-001	2,000000000000000E+000
-1,9973540E-001	-2,706311941146851E-001	3,511999911279418E-001	2,000000000000000E+000
-1,9772241E-001	-1,872284734236016E-001	3,529999910824699E-001	2,000000000000000E+000
-1,9431347E-001	-1,292252219345753E-001	3,563999909965787E-001	2,000000000000000E+000
-1,9090970E-001	-9,270985429975537E-002	3,597999909106875E-001	2,000000000000000E+000
-1,8751319E-001	-6,428822174120785E-002	3,631999908247963E-001	2,000000000000000E+000
-1,8410316E-001	-4,142454482439462E-002	3,665999907389050E-001	2,000000000000000E+000
-1,8070202E-001	-2,171180500920383E-002	3,699999906530138E-001	2,000000000000000E+000
-1,7731175E-001	-4,173607100160796E-003	3,733999905671226E-001	2,000000000000000E+000
-1,7390099E-001	1,162638746177436E-002	3,767999904812314E-001	2,000000000000000E+000
-1,7051260E-001	2,610425159400637E-002	3,801999903953401E-001	2,000000000000000E+000
-1,6711684E-001	3,974877679320352E-002	3,835999903094489E-001	2,000000000000000E+000
-1,6371076E-001	5,270780311047929E-002	3,869999902235577E-001	2,000000000000000E+000
-1,6031881E-001	6,462008665994301E-002	3,903999901376665E-001	2,000000000000000E+000
-1,5691477E-001	7,653237348586095E-002	3,937999900517752E-001	2,000000000000000E+000
-1,5351564E-001	8,732163238437363E-002	3,971999899658840E-001	2,000000000000000E+000
-1,5081130E-001	9,598031313766531E-002	3,998999898976763E-001	2,000000000000000E+000
-1,4971395E-001	9,970841556787491E-002	4,009999898698879E-001	3,000000000000000E+000
-1,4791638E-001	1,052067533810261E-001	4,027999898244161E-001	3,000000000000000E+000
-1,4450136E-001	1,160711156044276E-001	4,061999897385249E-001	3,000000000000000E+000
-1,4111550E-001	1,262142021578261E-001	4,095999896526337E-001	3,000000000000000E+000
-1,3772221E-001	1,368615740620958E-001	4,129999895667424E-001	3,000000000000000E+000
-1,3430697E-001	1,467698082360585E-001	4,163999894808512E-001	3,000000000000000E+000
-1,3092025E-001	1,568258638108100E-001	4,197999893949600E-001	3,000000000000000E+000
-1,2751670E-001	1,670905651171783E-001	4,231999893090688E-001	3,000000000000000E+000
-1,2413211E-001	1,771704630155009E-001	4,265999892231775E-001	3,000000000000000E+000
-1,2073813E-001	1,873493254988707E-001	4,299999891372863E-001	3,000000000000000E+000
-1,1734783E-001	1,977582739891667E-001	4,333999890513951E-001	3,000000000000000E+000
-1,1393353E-001	2,083007336113960E-001	4,367999889655039E-001	3,000000000000000E+000
-1,1054204E-001	2,185749609634522E-001	4,401999888796126E-001	3,000000000000000E+000
-1,0712941E-001	2,297445277909005E-001	4,435999887937214E-001	3,000000000000000E+000
-1,0372788E-001	2,406541923319305E-001	4,469999887078302E-001	3,000000000000000E+000
-1,0101405E-001	2,495185884537126E-001	4,496999886396225E-001	3,000000000000000E+000
-9,9868298E-002	2,544823288917542E-001	4,507999886118341E-001	3,000000000000000E+000
-9,9730708E-002	2,520407438278198E-001	4,509999886067817E-001	3,000000000000000E+000
-9,9868290E-002	2,190411388874054E-001	4,511999886017293E-001	3,000000000000000E+000
-1,0170251E-001	1,387929169477510E-001	4,529999885562574E-001	3,000000000000000E+000
-1,0509422E-001	6,553806519332295E-002	4,563999884703662E-001	3,000000000000000E+000
-1,0851737E-001	1,978925999961237E-002	4,597999883844750E-001	3,000000000000000E+000
-1,1191615E-001	-1,473276824309272E-002	4,631999882985838E-001	3,000000000000000E+000
-1,1531231E-001	-4,241644148873980E-002	4,665999882126926E-001	3,000000000000000E+000
-1,1871392E-001	-6,595013339938283E-002	4,699999881268013E-001	3,000000000000000E+000
-1,2211223E-001	-8,629352972548077E-002	4,733999880409101E-001	3,000000000000000E+000
-1,2551937E-001	-1,038651104454402E-001	4,767999879550189E-001	3,000000000000000E+000
-1,2889425E-001	-1,197187505822510E-001	4,801999878691277E-001	3,000000000000000E+000
-1,3227369E-001	-1,337233311560337E-001	4,835999877832364E-001	3,000000000000000E+000
-1,3569145E-001	-1,463413836690958E-001	4,869999876973452E-001	3,000000000000000E+000
-1,3910444E-001	-1,582024157432897E-001	4,903999876114540E-001	3,000000000000000E+000
-1,4250298E-001	-1,689535144651018E-001	4,937999875255628E-001	3,000000000000000E+000
-1,4590509E-001	-1,789332706321147E-001	4,971999874396715E-001	3,000000000000000E+000
-1,4931771E-001	-1,885982990297634E-001	5,005999873537803E-001	3,000000000000000E+000
-1,5269750E-001	-1,970771050400790E-001	5,039999872678891E-001	3,000000000000000E+000
-1,5610214E-001	-2,052304298777003E-001	5,073999871819979E-001	3,000000000000000E+000
-1,5949720E-001	-2,130654551601765E-001	5,107999870961066E-001	3,000000000000000E+000
-1,6288118E-001	-2,207526526926809E-001	5,141999870102154E-001	3,000000000000000E+000
-1,6629761E-001	-2,280070855667868E-001	5,175999869243242E-001	3,000000000000000E+000
-1,6969818E-001	-2,351315611394965E-001	5,209999868384330E-001	3,000000000000000E+000
-1,7309159E-001	-2,415216604986199E-001	5,243999867525417E-001	3,000000000000000E+000
-1,7650709E-001	-2,480786678315781E-001	5,277999866666505E-001	3,000000000000000E+000
-1,7988449E-001	-2,540014451369643E-001	5,311999865807593E-001	3,000000000000000E+000
-1,8328945E-001	-2,608565024966070E-001	5,345999864948681E-001	3,000000000000000E+000
-1,8668348E-001	-2,668853715767890E-001	5,379999864089768E-001	3,000000000000000E+000
-1,9009739E-001	-2,730966271446960E-001	5,413999863230856E-001	3,000000000000000E+000
-1,9350025E-001	-2,788179257113370E-001	5,447999862371944E-001	3,000000000000000E+000
-1,9689579E-001	-2,847585616182182E-001	5,481999861513032E-001	3,000000000000000E+000
-1,9910863E-001	-2,881562974944241E-001	5,503999860957265E-001	3,000000000000000E+000
-1,9967808E-001	-2,903355956077576E-001	5,509999860805692E-001	3,000000000000000E+000
-1,9988827E-001	-2,729774117469788E-001	5,511999860755168E-001	3,000000000000000E+000
-1,9973159E-001	-2,592243850231171E-001	5,515999860654119E-001	3,000000000000000E+000
-1,9772908E-001	-1,769971715639250E-001	5,533999860199401E-001	3,000000000000000E+000
-1,9431311E-001	-1,194552814458794E-001	5,567999859340489E-001	3,000000000000000E+000
-1,9089261E-001	-8,334764307846854E-002	5,601999858481577E-001	3,000000000000000E+000
-1,8751882E-001	-5,566159175577901E-002	5,635999857622664E-001	3,000000000000000E+000
-1,8411548E-001	-3,291355506757987E-002	5,669999856763752E-001	3,000000000000000E+000
-1,8071073E-001	-1,347024782222661E-002	5,703999855904840E-001	3,000000000000000E+000
-1,7731386E-001	3,760367616700849E-003	5,737999855045928E-001	3,000000000000000E+000
-1,7391379E-001	1,924681676700860E-002	5,771999854187015E-001	3,000000000000000E+000
-1,7051943E-001	3,358042684931201E-002	5,805999853328103E-001	3,000000000000000E+000
-1,6711025E-001	4,723330257093053E-002	5,839999852469191E-001	3,000000000000000E+000
-1,6373405E-001	5,959385097958203E-002	5,873999851610279E-001	3,000000000000000E+000
-1,6032848E-001	7,172787776698908E-002	5,907999850751366E-001	3,000000000000000E+000
-1,5692599E-001	8,330278367066102E-002	5,941999849892454E-001	3,000000000000000E+000
-1,5351410E-001	9,420409459016810E-002	5,975999849033542E-001	3,000000000000000E+000
-1,5091144E-001	1,026006444390080E-001	6,001999848376727E-001	3,000000000000000E+000
-1,4995472E-001	1,045915931463242E-001	6,011999848124105E-001	3,000000000000000E+000
-1,4970630E-001	1,052401438355446E-001	6,013999848073581E-001	3,000000000000000E+000